File: 研究/Sn/Sn_X線/190306/Ge_20190122_mid.TXT
Sample Ge-cutïi
Comments medium
Filename C:\WINDMAX\DATA\SHIMANO\XRD20190306\Ge_20190122_mid.raw
Goniometer TTRáV êÖïΩ∫ﬁ∆µ“∞¿(Tsé≤éËìÆ,ADS)
Attachment ïWèÄééóøŒŸ¿ﬁ∞
Monochromater å≈íË”…∏€“∞¿
ScanningMode 2Theta/Theta
ScanningType Continuos Scanning
X-Ray 40kV/300mA
î≠éUΩÿØƒ 2/3Åã
î≠éUècêßå¿ΩÿØƒ 10mm
éUóêΩÿØƒ 2/3Åã
éÛåıΩÿØƒ 0.3mm
±Ø√»∞¿ äJï˙
”…∏€éÛåıΩÿØƒ 0.8mm
Start 10
Stop 90
Step 0.02
10 150
10.06 116
10.12 145
10.18 132
10.24 149
10.3 150
10.36 146
10.42 131
10.48 141
10.54 156
10.6 143
10.66 164
10.72 138
10.78 126
10.84 132
10.9 134
10.96 147
11.02 138
11.08 149
11.14 112
11.2 100
11.26 136
11.32 146
11.38 121
11.44 149
11.5 135
11.56 129
11.62 130
11.68 139
11.74 138
11.8 138
11.86 139
11.92 125
11.98 130
12.04 147
12.1 116
12.16 124
12.22 139
12.28 134
12.34 152
12.4 127
12.46 127
12.52 123
12.58 132
12.64 152
12.7 133
12.76 121
12.82 120
12.88 129
12.94 144
13 144
13.06 134
13.12 128
13.18 123
13.24 143
13.3 111
13.36 120
13.42 161
13.48 138
13.54 145
13.6 135
13.66 123
13.72 150
13.78 174
13.84 156
13.9 173
13.96 143
14.02 154
14.08 153
14.14 134
14.2 156
14.26 182
14.32 171
14.38 174
14.44 180
14.5 151
14.56 179
14.62 143
14.68 160
14.74 133
14.8 170
14.86 163
14.92 148
14.98 187
15.04 154
15.1 159
15.16 168
15.22 153
15.28 160
15.34 185
15.4 167
15.46 147
15.52 141
15.58 167
15.64 165
15.7 161
15.76 172
15.82 185
15.88 162
15.94 168
16 158
16.06 171
16.12 167
16.18 162
16.24 183
16.3 189
16.36 145
16.42 173
16.48 171
16.54 163
16.6 159
16.66 163
16.72 148
16.78 177
16.84 166
16.9 186
16.96 162
17.02 179
17.08 165
17.14 144
17.2 175
17.26 173
17.32 159
17.38 171
17.44 171
17.5 193
17.56 163
17.62 191
17.68 159
17.74 180
17.8 184
17.86 169
17.92 156
17.98 172
18.04 184
18.1 170
18.16 174
18.22 170
18.28 189
18.34 168
18.4 168
18.46 161
18.52 204
18.58 162
18.64 178
18.7 188
18.76 177
18.82 192
18.88 154
18.94 184
19 170
19.06 187
19.12 189
19.18 167
19.24 210
19.3 181
19.36 213
19.42 218
19.48 163
19.54 196
19.6 182
19.66 183
19.72 214
19.78 221
19.84 200
19.9 202
19.96 178
20.02 223
20.08 172
20.14 199
20.2 233
20.26 240
20.32 198
20.38 213
20.44 201
20.5 227
20.56 226
20.62 204
20.68 210
20.74 235
20.8 216
20.86 250
20.92 254
20.98 231
21.04 235
21.1 222
21.16 242
21.22 240
21.28 257
21.34 249
21.4 266
21.46 222
21.52 249
21.58 250
21.64 259
21.7 261
21.76 257
21.82 272
21.88 232
21.94 290
22 291
22.06 237
22.12 291
22.18 281
22.24 288
22.3 301
22.36 297
22.42 276
22.48 282
22.54 283
22.6 308
22.66 291
22.72 285
22.78 297
22.84 292
22.9 327
22.96 291
23.02 279
23.08 270
23.14 284
23.2 227
23.26 255
23.32 256
23.38 273
23.44 267
23.5 265
23.56 223
23.62 255
23.68 252
23.74 253
23.8 231
23.86 248
23.92 210
23.98 232
24.04 240
24.1 218
24.16 246
24.22 220
24.28 229
24.34 242
24.4 246
24.46 231
24.52 245
24.58 235
24.64 226
24.7 274
24.76 221
24.82 234
24.88 258
24.94 252
25 253
25.06 253
25.12 224
25.18 200
25.24 242
25.3 242
25.36 234
25.42 211
25.48 217
25.54 239
25.6 223
25.66 260
25.72 252
25.78 220
25.84 219
25.9 199
25.96 230
26.02 209
26.08 233
26.14 236
26.2 239
26.26 226
26.32 237
26.38 225
26.44 234
26.5 222
26.56 224
26.62 244
26.68 212
26.74 222
26.8 244
26.86 199
26.92 238
26.98 249
27.04 229
27.1 197
27.16 242
27.22 252
27.28 293
27.34 280
27.4 257
27.46 229
27.52 246
27.58 216
27.64 210
27.7 214
27.76 232
27.82 236
27.88 221
27.94 235
28 221
28.06 232
28.12 216
28.18 213
28.24 220
28.3 240
28.36 220
28.42 196
28.48 227
28.54 229
28.6 225
28.66 229
28.72 227
28.78 236
28.84 225
28.9 230
28.96 215
29.02 231
29.08 217
29.14 264
29.2 215
29.26 230
29.32 213
29.38 230
29.44 221
29.5 218
29.56 233
29.62 203
29.68 216
29.74 225
29.8 214
29.86 221
29.92 244
29.98 199
30.04 208
30.1 211
30.16 222
30.22 214
30.28 202
30.34 212
30.4 220
30.46 215
30.52 206
30.58 189
30.64 200
30.7 220
30.76 202
30.82 203
30.88 199
30.94 196
31 209
31.06 195
31.12 238
31.18 208
31.24 187
31.3 220
31.36 190
31.42 239
31.48 220
31.54 198
31.6 210
31.66 199
31.72 204
31.78 164
31.84 189
31.9 180
31.96 174
32.02 182
32.08 167
32.14 205
32.2 178
32.26 174
32.32 171
32.38 176
32.44 193
32.5 177
32.56 187
32.62 177
32.68 177
32.74 168
32.8 210
32.86 155
32.92 179
32.98 182
33.04 193
33.1 177
33.16 168
33.22 172
33.28 171
33.34 167
33.4 183
33.46 188
33.52 161
33.58 161
33.64 153
33.7 170
33.76 178
33.82 181
33.88 164
33.94 135
34 137
34.06 150
34.12 165
34.18 154
34.24 160
34.3 161
34.36 178
34.42 151
34.48 156
34.54 153
34.6 147
34.66 153
34.72 152
34.78 124
34.84 152
34.9 156
34.96 143
35.02 154
35.08 150
35.14 159
35.2 141
35.26 128
35.32 131
35.38 152
35.44 156
35.5 160
35.56 157
35.62 275
35.68 168
35.74 217
35.8 160
35.86 128
35.92 149
35.98 123
36.04 159
36.1 132
36.16 135
36.22 159
36.28 128
36.34 145
36.4 129
36.46 129
36.52 128
36.58 121
36.64 139
36.7 121
36.76 103
36.82 123
36.88 107
36.94 127
37 132
37.06 146
37.12 136
37.18 119
37.24 122
37.3 126
37.36 111
37.42 99
37.48 144
37.54 123
37.6 125
37.66 104
37.72 126
37.78 126
37.84 115
37.9 104
37.96 115
38.02 117
38.08 94
38.14 120
38.2 128
38.26 101
38.32 122
38.38 147
38.44 123
38.5 107
38.56 126
38.62 129
38.68 114
38.74 103
38.8 98
38.86 115
38.92 118
38.98 127
39.04 112
39.1 112
39.16 112
39.22 113
39.28 114
39.34 95
39.4 102
39.46 113
39.52 101
39.58 111
39.64 118
39.7 111
39.76 102
39.82 118
39.88 101
39.94 111
40 124
40.06 98
40.12 128
40.18 114
40.24 112
40.3 118
40.36 137
40.42 112
40.48 109
40.54 109
40.6 110
40.66 102
40.72 101
40.78 90
40.84 87
40.9 128
40.96 110
41.02 106
41.08 109
41.14 130
41.2 122
41.26 122
41.32 129
41.38 136
41.44 120
41.5 109
41.56 95
41.62 125
41.68 116
41.74 112
41.8 124
41.86 98
41.92 118
41.98 111
42.04 96
42.1 99
42.16 116
42.22 133
42.28 122
42.34 103
42.4 96
42.46 89
42.52 110
42.58 105
42.64 117
42.7 108
42.76 103
42.82 122
42.88 109
42.94 113
43 107
43.06 122
43.12 130
43.18 113
43.24 138
43.3 109
43.36 96
43.42 129
43.48 125
43.54 90
43.6 88
43.66 121
43.72 115
43.78 106
43.84 105
43.9 87
43.96 114
44.02 116
44.08 94
44.14 95
44.2 110
44.26 106
44.32 95
44.38 108
44.44 107
44.5 105
44.56 113
44.62 108
44.68 98
44.74 108
44.8 109
44.86 113
44.92 98
44.98 100
45.04 119
45.1 98
45.16 111
45.22 115
45.28 121
45.34 110
45.4 130
45.46 122
45.52 90
45.58 108
45.64 109
45.7 114
45.76 84
45.82 107
45.88 105
45.94 97
46 104
46.06 105
46.12 115
46.18 107
46.24 122
46.3 91
46.36 96
46.42 113
46.48 107
46.54 95
46.6 91
46.66 71
46.72 105
46.78 109
46.84 102
46.9 87
46.96 98
47.02 111
47.08 97
47.14 99
47.2 105
47.26 112
47.32 134
47.38 140
47.44 110
47.5 105
47.56 104
47.62 109
47.68 98
47.74 101
47.8 99
47.86 104
47.92 99
47.98 105
48.04 86
48.1 106
48.16 88
48.22 92
48.28 90
48.34 89
48.4 104
48.46 84
48.52 90
48.58 96
48.64 99
48.7 79
48.76 94
48.82 78
48.88 108
48.94 93
49 79
49.06 91
49.12 79
49.18 84
49.24 105
49.3 87
49.36 87
49.42 96
49.48 82
49.54 95
49.6 103
49.66 92
49.72 87
49.78 93
49.84 98
49.9 100
49.96 76
50.02 88
50.08 99
50.14 78
50.2 98
50.26 91
50.32 91
50.38 101
50.44 88
50.5 112
50.56 79
50.62 83
50.68 85
50.74 73
50.8 99
50.86 106
50.92 100
50.98 76
51.04 93
51.1 84
51.16 109
51.22 84
51.28 93
51.34 75
51.4 102
51.46 90
51.52 73
51.58 93
51.64 81
51.7 94
51.76 102
51.82 99
51.88 102
51.94 80
52 83
52.06 80
52.12 100
52.18 96
52.24 85
52.3 90
52.36 86
52.42 103
52.48 82
52.54 92
52.6 92
52.66 81
52.72 87
52.78 91
52.84 93
52.9 89
52.96 78
53.02 75
53.08 92
53.14 69
53.2 88
53.26 83
53.32 90
53.38 89
53.44 90
53.5 76
53.56 91
53.62 93
53.68 94
53.74 98
53.8 91
53.86 92
53.92 76
53.98 105
54.04 117
54.1 97
54.16 96
54.22 92
54.28 87
54.34 81
54.4 100
54.46 86
54.52 87
54.58 85
54.64 85
54.7 82
54.76 90
54.82 102
54.88 82
54.94 70
55 91
55.06 95
55.12 81
55.18 86
55.24 95
55.3 77
55.36 94
55.42 76
55.48 103
55.54 95
55.6 78
55.66 90
55.72 91
55.78 102
55.84 87
55.9 89
55.96 82
56.02 82
56.08 81
56.14 102
56.2 91
56.26 89
56.32 90
56.38 96
56.44 81
56.5 83
56.56 92
56.62 88
56.68 82
56.74 68
56.8 95
56.86 81
56.92 88
56.98 89
57.04 84
57.1 109
57.16 95
57.22 82
57.28 106
57.34 93
57.4 99
57.46 94
57.52 96
57.58 84
57.64 99
57.7 111
57.76 95
57.82 73
57.88 83
57.94 81
58 92
58.06 86
58.12 83
58.18 79
58.24 84
58.3 79
58.36 83
58.42 89
58.48 96
58.54 92
58.6 81
58.66 83
58.72 78
58.78 90
58.84 92
58.9 89
58.96 83
59.02 75
59.08 97
59.14 88
59.2 94
59.26 81
59.32 87
59.38 85
59.44 84
59.5 93
59.56 92
59.62 106
59.68 108
59.74 79
59.8 83
59.86 99
59.92 93
59.98 103
60.04 77
60.1 89
60.16 83
60.22 89
60.28 98
60.34 96
60.4 95
60.46 78
60.52 86
60.58 84
60.64 87
60.7 88
60.76 94
60.82 94
60.88 68
60.94 83
61 103
61.06 89
61.12 81
61.18 79
61.24 75
61.3 96
61.36 86
61.42 73
61.48 83
61.54 79
61.6 101
61.66 96
61.72 90
61.78 83
61.84 91
61.9 63
61.96 87
62.02 90
62.08 95
62.14 79
62.2 80
62.26 88
62.32 75
62.38 79
62.44 94
62.5 81
62.56 73
62.62 97
62.68 77
62.74 75
62.8 86
62.86 92
62.92 85
62.98 96
63.04 72
63.1 100
63.16 75
63.22 88
63.28 81
63.34 79
63.4 97
63.46 73
63.52 85
63.58 78
63.64 72
63.7 71
63.76 74
63.82 78
63.88 77
63.94 84
64 83
64.06 80
64.12 87
64.18 84
64.24 72
64.3 90
64.36 93
64.42 79
64.48 83
64.54 81
64.6 73
64.66 76
64.72 76
64.78 67
64.84 64
64.9 79
64.96 65
65.02 73
65.08 89
65.14 82
65.2 82
65.26 77
65.32 73
65.38 91
65.44 86
65.5 79
65.56 85
65.62 84
65.68 74
65.74 80
65.8 77
65.86 73
65.92 97
65.98 93
66.04 75
66.1 76
66.16 98
66.22 94
66.28 79
66.34 65
66.4 81
66.46 84
66.52 79
66.58 88
66.64 75
66.7 89
66.76 82
66.82 93
66.88 83
66.94 75
67 68
67.06 68
67.12 68
67.18 66
67.24 79
67.3 63
67.36 83
67.42 89
67.48 78
67.54 60
67.6 68
67.66 73
67.72 75
67.78 84
67.84 88
67.9 86
67.96 96
68.02 69
68.08 77
68.14 85
68.2 62
68.26 74
68.32 79
68.38 75
68.44 78
68.5 75
68.56 63
68.62 61
68.68 70
68.74 81
68.8 76
68.86 74
68.92 62
68.98 70
69.04 69
69.1 88
69.16 74
69.22 64
69.28 70
69.34 68
69.4 77
69.46 68
69.52 81
69.58 83
69.64 83
69.7 60
69.76 76
69.82 58
69.88 58
69.94 60
70 66
70.06 68
70.12 75
70.18 71
70.24 73
70.3 71
70.36 61
70.42 62
70.48 61
70.54 72
70.6 72
70.66 58
70.72 69
70.78 66
70.84 70
70.9 65
70.96 75
71.02 79
71.08 77
71.14 58
71.2 74
71.26 68
71.32 71
71.38 84
71.44 72
71.5 84
71.56 58
71.62 65
71.68 67
71.74 61
71.8 74
71.86 68
71.92 75
71.98 73
72.04 68
72.1 61
72.16 78
72.22 78
72.28 58
72.34 74
72.4 69
72.46 77
72.52 76
72.58 70
72.64 78
72.7 66
72.76 77
72.82 64
72.88 60
72.94 67
73 71
73.06 67
73.12 75
73.18 65
73.24 72
73.3 63
73.36 74
73.42 69
73.48 81
73.54 60
73.6 65
73.66 57
73.72 53
73.78 62
73.84 73
73.9 64
73.96 60
74.02 52
74.08 69
74.14 78
74.2 68
74.26 63
74.32 53
74.38 67
74.44 65
74.5 66
74.56 70
74.62 78
74.68 71
74.74 62
74.8 61
74.86 67
74.92 65
74.98 70
75.04 69
75.1 62
75.16 67
75.22 75
75.28 80
75.34 72
75.4 62
75.46 58
75.52 64
75.58 49
75.64 65
75.7 76
75.76 52
75.82 68
75.88 72
75.94 76
76 69
76.06 56
76.12 65
76.18 82
76.24 46
76.3 67
76.36 66
76.42 71
76.48 75
76.54 78
76.6 56
76.66 60
76.72 65
76.78 62
76.84 70
76.9 58
76.96 55
77.02 61
77.08 55
77.14 50
77.2 73
77.26 48
77.32 63
77.38 66
77.44 62
77.5 62
77.56 61
77.62 61
77.68 47
77.74 57
77.8 56
77.86 53
77.92 80
77.98 64
78.04 58
78.1 45
78.16 73
78.22 56
78.28 66
78.34 49
78.4 60
78.46 54
78.52 47
78.58 52
78.64 50
78.7 59
78.76 63
78.82 67
78.88 62
78.94 56
79 66
79.06 75
79.12 61
79.18 46
79.24 61
79.3 63
79.36 60
79.42 51
79.48 60
79.54 62
79.6 61
79.66 60
79.72 40
79.78 64
79.84 65
79.9 52
79.96 47
80.02 58
80.08 57
80.14 53
80.2 77
80.26 54
80.32 52
80.38 67
80.44 59
80.5 61
80.56 59
80.62 59
80.68 47
80.74 58
80.8 60
80.86 54
80.92 55
80.98 50
81.04 62
81.1 55
81.16 61
81.22 52
81.28 47
81.34 67
81.4 57
81.46 55
81.52 68
81.58 60
81.64 51
81.7 63
81.76 55
81.82 59
81.88 60
81.94 60
82 64
82.06 56
82.12 60
82.18 53
82.24 48
82.3 61
82.36 55
82.42 58
82.48 52
82.54 68
82.6 57
82.66 44
82.72 54
82.78 53
82.84 53
82.9 59
82.96 53
83.02 48
83.08 56
83.14 63
83.2 50
83.26 58
83.32 55
83.38 69
83.44 61
83.5 47
83.56 59
83.62 66
83.68 51
83.74 62
83.8 52
83.86 65
83.92 58
83.98 53
84.04 56
84.1 60
84.16 48
84.22 62
84.28 58
84.34 49
84.4 54
84.46 47
84.52 59
84.58 52
84.64 61
84.7 47
84.76 52
84.82 57
84.88 53
84.94 52
85 54
85.06 45
85.12 55
85.18 44
85.24 44
85.3 63
85.36 53
85.42 49
85.48 42
85.54 47
85.6 46
85.66 62
85.72 49
85.78 43
85.84 40
85.9 48
85.96 59
86.02 52
86.08 55
86.14 60
86.2 54
86.26 52
86.32 54
86.38 41
86.44 59
86.5 48
86.56 45
86.62 51
86.68 50
86.74 60
86.8 63
86.86 47
86.92 64
86.98 41
87.04 44
87.1 49
87.16 48
87.22 39
87.28 53
87.34 49
87.4 55
87.46 35
87.52 45
87.58 59
87.64 44
87.7 58
87.76 53
87.82 45
87.88 51
87.94 47
88 76
88.06 51
88.12 58
88.18 55
88.24 62
88.3 59
88.36 50
88.42 49
88.48 58
88.54 57
88.6 50
88.66 54
88.72 39
88.78 65
88.84 48
88.9 54
88.96 60
89.02 77
89.08 78
89.14 59
89.2 57
89.26 59
89.32 63
89.38 66
89.44 98
89.5 81
89.56 85
89.62 74
89.68 93
89.74 123
89.8 142
89.86 175
89.92 162
89.98 199
90 214