File: 研究/Sn/Sn_X線/190306/glass_reference.TXT
Sample glass_reference
Comments rapid
Filename C:\WINDMAX\DATA\SHIMANO\XRD20190306\glass_reference.raw
Goniometer TTRáV êÖïΩ∫ﬁ∆µ“∞¿(Tsé≤éËìÆ,ADS)
Attachment ïWèÄééóøŒŸ¿ﬁ∞
Monochromater å≈íË”…∏€“∞¿
ScanningMode 2Theta/Theta
ScanningType Continuos Scanning
X-Ray 40kV/300mA
î≠éUΩÿØƒ 2/3Åã
î≠éUècêßå¿ΩÿØƒ 2mm
éUóêΩÿØƒ 2/3Åã
éÛåıΩÿØƒ 0.3mm
±Ø√»∞¿ äJï˙
”…∏€éÛåıΩÿØƒ 0.8mm
Start 10
Stop 90
Step 0.02
10 35
10.06 36
10.12 33
10.18 46
10.24 30
10.3 27
10.36 33
10.42 31
10.48 38
10.54 42
10.6 27
10.66 27
10.72 34
10.78 37
10.84 33
10.9 40
10.96 39
11.02 25
11.08 27
11.14 37
11.2 39
11.26 37
11.32 45
11.38 47
11.44 28
11.5 42
11.56 45
11.62 45
11.68 32
11.74 29
11.8 45
11.86 26
11.92 45
11.98 26
12.04 41
12.1 36
12.16 34
12.22 27
12.28 34
12.34 33
12.4 21
12.46 37
12.52 38
12.58 39
12.64 30
12.7 46
12.76 33
12.82 30
12.88 40
12.94 37
13 31
13.06 55
13.12 39
13.18 38
13.24 35
13.3 33
13.36 45
13.42 18
13.48 42
13.54 38
13.6 27
13.66 29
13.72 35
13.78 35
13.84 33
13.9 29
13.96 33
14.02 32
14.08 39
14.14 46
14.2 45
14.26 38
14.32 31
14.38 38
14.44 41
14.5 44
14.56 48
14.62 35
14.68 35
14.74 30
14.8 39
14.86 47
14.92 27
14.98 31
15.04 30
15.1 42
15.16 35
15.22 32
15.28 45
15.34 34
15.4 45
15.46 36
15.52 38
15.58 43
15.64 31
15.7 52
15.76 41
15.82 35
15.88 34
15.94 50
16 37
16.06 57
16.12 42
16.18 41
16.24 35
16.3 43
16.36 46
16.42 49
16.48 41
16.54 47
16.6 43
16.66 39
16.72 59
16.78 50
16.84 55
16.9 53
16.96 46
17.02 45
17.08 38
17.14 49
17.2 66
17.26 52
17.32 49
17.38 65
17.44 52
17.5 53
17.56 57
17.62 60
17.68 55
17.74 48
17.8 37
17.86 60
17.92 66
17.98 54
18.04 54
18.1 55
18.16 48
18.22 55
18.28 54
18.34 55
18.4 76
18.46 48
18.52 48
18.58 63
18.64 50
18.7 58
18.76 73
18.82 60
18.88 71
18.94 63
19 77
19.06 64
19.12 54
19.18 61
19.24 47
19.3 81
19.36 66
19.42 59
19.48 64
19.54 76
19.6 70
19.66 80
19.72 74
19.78 64
19.84 61
19.9 58
19.96 67
20.02 67
20.08 59
20.14 78
20.2 59
20.26 68
20.32 70
20.38 93
20.44 69
20.5 62
20.56 73
20.62 87
20.68 84
20.74 87
20.8 72
20.86 97
20.92 70
20.98 90
21.04 75
21.1 90
21.16 88
21.22 79
21.28 74
21.34 88
21.4 78
21.46 95
21.52 82
21.58 89
21.64 72
21.7 100
21.76 72
21.82 90
21.88 86
21.94 100
22 104
22.06 92
22.12 71
22.18 97
22.24 75
22.3 87
22.36 96
22.42 82
22.48 96
22.54 102
22.6 97
22.66 93
22.72 107
22.78 86
22.84 99
22.9 112
22.96 80
23.02 98
23.08 94
23.14 101
23.2 101
23.26 88
23.32 76
23.38 87
23.44 101
23.5 102
23.56 97
23.62 72
23.68 101
23.74 114
23.8 97
23.86 102
23.92 96
23.98 95
24.04 105
24.1 80
24.16 118
24.22 112
24.28 90
24.34 99
24.4 107
24.46 95
24.52 96
24.58 88
24.64 86
24.7 81
24.76 96
24.82 91
24.88 109
24.94 94
25 83
25.06 88
25.12 90
25.18 89
25.24 86
25.3 93
25.36 95
25.42 102
25.48 96
25.54 96
25.6 100
25.66 89
25.72 79
25.78 91
25.84 93
25.9 95
25.96 94
26.02 97
26.08 92
26.14 87
26.2 90
26.26 80
26.32 85
26.38 112
26.44 103
26.5 82
26.56 99
26.62 87
26.68 90
26.74 79
26.8 87
26.86 77
26.92 93
26.98 88
27.04 78
27.1 101
27.16 75
27.22 83
27.28 90
27.34 80
27.4 72
27.46 87
27.52 77
27.58 86
27.64 78
27.7 67
27.76 79
27.82 86
27.88 87
27.94 100
28 92
28.06 93
28.12 78
28.18 79
28.24 78
28.3 86
28.36 101
28.42 102
28.48 90
28.54 79
28.6 80
28.66 79
28.72 73
28.78 80
28.84 74
28.9 68
28.96 67
29.02 96
29.08 87
29.14 93
29.2 82
29.26 71
29.32 76
29.38 85
29.44 77
29.5 89
29.56 95
29.62 86
29.68 85
29.74 88
29.8 94
29.86 82
29.92 87
29.98 77
30.04 84
30.1 89
30.16 78
30.22 74
30.28 84
30.34 81
30.4 77
30.46 93
30.52 75
30.58 93
30.64 87
30.7 78
30.76 77
30.82 67
30.88 86
30.94 77
31 77
31.06 82
31.12 85
31.18 81
31.24 78
31.3 63
31.36 75
31.42 69
31.48 68
31.54 75
31.6 82
31.66 72
31.72 74
31.78 80
31.84 67
31.9 75
31.96 80
32.02 69
32.08 83
32.14 69
32.2 74
32.26 63
32.32 75
32.38 61
32.44 72
32.5 80
32.56 76
32.62 67
32.68 59
32.74 75
32.8 70
32.86 84
32.92 55
32.98 65
33.04 73
33.1 61
33.16 65
33.22 60
33.28 49
33.34 62
33.4 70
33.46 54
33.52 57
33.58 86
33.64 58
33.7 50
33.76 50
33.82 74
33.88 70
33.94 60
34 62
34.06 62
34.12 50
34.18 49
34.24 64
34.3 53
34.36 63
34.42 54
34.48 59
34.54 65
34.6 46
34.66 55
34.72 57
34.78 62
34.84 54
34.9 66
34.96 59
35.02 65
35.08 66
35.14 42
35.2 44
35.26 56
35.32 48
35.38 46
35.44 46
35.5 43
35.56 68
35.62 50
35.68 52
35.74 41
35.8 57
35.86 53
35.92 57
35.98 46
36.04 37
36.1 55
36.16 53
36.22 53
36.28 50
36.34 29
36.4 49
36.46 48
36.52 41
36.58 45
36.64 35
36.7 44
36.76 44
36.82 47
36.88 51
36.94 44
37 47
37.06 40
37.12 53
37.18 34
37.24 57
37.3 36
37.36 44
37.42 39
37.48 45
37.54 42
37.6 39
37.66 37
37.72 35
37.78 43
37.84 45
37.9 44
37.96 49
38.02 41
38.08 40
38.14 40
38.2 34
38.26 33
38.32 44
38.38 39
38.44 42
38.5 44
38.56 41
38.62 38
38.68 31
38.74 35
38.8 38
38.86 33
38.92 45
38.98 41
39.04 39
39.1 37
39.16 34
39.22 38
39.28 38
39.34 55
39.4 41
39.46 33
39.52 40
39.58 47
39.64 38
39.7 35
39.76 44
39.82 39
39.88 26
39.94 28
40 41
40.06 35
40.12 39
40.18 34
40.24 34
40.3 40
40.36 33
40.42 38
40.48 33
40.54 42
40.6 35
40.66 44
40.72 38
40.78 29
40.84 46
40.9 42
40.96 43
41.02 40
41.08 39
41.14 30
41.2 36
41.26 32
41.32 34
41.38 36
41.44 46
41.5 39
41.56 38
41.62 32
41.68 28
41.74 47
41.8 33
41.86 27
41.92 42
41.98 33
42.04 39
42.1 35
42.16 42
42.22 30
42.28 29
42.34 38
42.4 50
42.46 41
42.52 38
42.58 43
42.64 42
42.7 38
42.76 30
42.82 40
42.88 29
42.94 43
43 43
43.06 28
43.12 40
43.18 33
43.24 36
43.3 44
43.36 32
43.42 39
43.48 34
43.54 28
43.6 38
43.66 24
43.72 31
43.78 37
43.84 42
43.9 37
43.96 32
44.02 29
44.08 42
44.14 49
44.2 39
44.26 39
44.32 29
44.38 42
44.44 40
44.5 44
44.56 49
44.62 39
44.68 32
44.74 43
44.8 29
44.86 40
44.92 42
44.98 38
45.04 42
45.1 31
45.16 37
45.22 42
45.28 46
45.34 33
45.4 35
45.46 26
45.52 35
45.58 46
45.64 34
45.7 42
45.76 36
45.82 37
45.88 44
45.94 39
46 33
46.06 32
46.12 33
46.18 30
46.24 25
46.3 32
46.36 26
46.42 35
46.48 32
46.54 32
46.6 36
46.66 40
46.72 39
46.78 34
46.84 34
46.9 32
46.96 27
47.02 46
47.08 34
47.14 41
47.2 33
47.26 32
47.32 40
47.38 27
47.44 33
47.5 34
47.56 29
47.62 48
47.68 39
47.74 41
47.8 47
47.86 33
47.92 31
47.98 37
48.04 28
48.1 40
48.16 38
48.22 32
48.28 35
48.34 27
48.4 29
48.46 33
48.52 36
48.58 33
48.64 32
48.7 23
48.76 42
48.82 40
48.88 30
48.94 32
49 23
49.06 38
49.12 35
49.18 34
49.24 24
49.3 38
49.36 29
49.42 36
49.48 40
49.54 34
49.6 26
49.66 31
49.72 26
49.78 24
49.84 30
49.9 32
49.96 34
50.02 21
50.08 31
50.14 33
50.2 25
50.26 41
50.32 30
50.38 36
50.44 25
50.5 34
50.56 38
50.62 32
50.68 38
50.74 26
50.8 31
50.86 40
50.92 31
50.98 30
51.04 33
51.1 34
51.16 24
51.22 25
51.28 34
51.34 35
51.4 32
51.46 30
51.52 28
51.58 33
51.64 25
51.7 28
51.76 31
51.82 24
51.88 34
51.94 30
52 34
52.06 37
52.12 38
52.18 33
52.24 35
52.3 30
52.36 36
52.42 33
52.48 26
52.54 27
52.6 32
52.66 34
52.72 27
52.78 33
52.84 27
52.9 33
52.96 27
53.02 35
53.08 28
53.14 37
53.2 31
53.26 36
53.32 32
53.38 32
53.44 28
53.5 34
53.56 39
53.62 31
53.68 26
53.74 37
53.8 36
53.86 32
53.92 23
53.98 26
54.04 31
54.1 27
54.16 37
54.22 41
54.28 35
54.34 26
54.4 32
54.46 40
54.52 32
54.58 30
54.64 31
54.7 29
54.76 27
54.82 25
54.88 24
54.94 33
55 39
55.06 20
55.12 37
55.18 30
55.24 29
55.3 32
55.36 31
55.42 28
55.48 29
55.54 37
55.6 30
55.66 41
55.72 29
55.78 34
55.84 39
55.9 35
55.96 35
56.02 28
56.08 34
56.14 27
56.2 29
56.26 36
56.32 21
56.38 30
56.44 27
56.5 26
56.56 36
56.62 38
56.68 30
56.74 32
56.8 38
56.86 38
56.92 30
56.98 42
57.04 42
57.1 27
57.16 30
57.22 36
57.28 30
57.34 32
57.4 32
57.46 33
57.52 32
57.58 33
57.64 32
57.7 34
57.76 24
57.82 29
57.88 28
57.94 42
58 35
58.06 28
58.12 37
58.18 37
58.24 41
58.3 35
58.36 45
58.42 28
58.48 30
58.54 38
58.6 34
58.66 28
58.72 35
58.78 28
58.84 34
58.9 26
58.96 31
59.02 20
59.08 26
59.14 41
59.2 28
59.26 27
59.32 40
59.38 22
59.44 29
59.5 35
59.56 35
59.62 40
59.68 27
59.74 35
59.8 35
59.86 31
59.92 34
59.98 32
60.04 31
60.1 33
60.16 34
60.22 29
60.28 39
60.34 32
60.4 26
60.46 42
60.52 25
60.58 35
60.64 30
60.7 40
60.76 33
60.82 29
60.88 28
60.94 28
61 32
61.06 28
61.12 28
61.18 41
61.24 37
61.3 37
61.36 24
61.42 39
61.48 26
61.54 31
61.6 36
61.66 42
61.72 28
61.78 25
61.84 28
61.9 35
61.96 27
62.02 33
62.08 36
62.14 35
62.2 35
62.26 26
62.32 27
62.38 35
62.44 31
62.5 26
62.56 29
62.62 36
62.68 23
62.74 34
62.8 29
62.86 24
62.92 38
62.98 32
63.04 32
63.1 30
63.16 30
63.22 28
63.28 30
63.34 33
63.4 19
63.46 32
63.52 24
63.58 24
63.64 32
63.7 38
63.76 33
63.82 30
63.88 31
63.94 38
64 38
64.06 27
64.12 33
64.18 30
64.24 34
64.3 33
64.36 32
64.42 32
64.48 28
64.54 27
64.6 31
64.66 35
64.72 36
64.78 25
64.84 21
64.9 38
64.96 29
65.02 23
65.08 35
65.14 38
65.2 29
65.26 36
65.32 38
65.38 24
65.44 34
65.5 30
65.56 41
65.62 22
65.68 30
65.74 25
65.8 28
65.86 35
65.92 34
65.98 36
66.04 32
66.1 23
66.16 37
66.22 31
66.28 30
66.34 26
66.4 31
66.46 42
66.52 27
66.58 30
66.64 33
66.7 26
66.76 27
66.82 22
66.88 34
66.94 29
67 18
67.06 29
67.12 29
67.18 28
67.24 22
67.3 35
67.36 25
67.42 36
67.48 29
67.54 25
67.6 24
67.66 29
67.72 24
67.78 23
67.84 23
67.9 29
67.96 23
68.02 29
68.08 33
68.14 32
68.2 37
68.26 30
68.32 28
68.38 31
68.44 29
68.5 34
68.56 21
68.62 38
68.68 32
68.74 33
68.8 25
68.86 27
68.92 34
68.98 27
69.04 40
69.1 28
69.16 26
69.22 22
69.28 23
69.34 27
69.4 24
69.46 28
69.52 17
69.58 23
69.64 34
69.7 36
69.76 36
69.82 22
69.88 20
69.94 23
70 15
70.06 22
70.12 35
70.18 25
70.24 33
70.3 29
70.36 31
70.42 31
70.48 32
70.54 36
70.6 27
70.66 25
70.72 26
70.78 31
70.84 24
70.9 32
70.96 28
71.02 26
71.08 28
71.14 27
71.2 31
71.26 23
71.32 26
71.38 24
71.44 27
71.5 28
71.56 19
71.62 27
71.68 27
71.74 34
71.8 37
71.86 29
71.92 20
71.98 34
72.04 24
72.1 24
72.16 27
72.22 38
72.28 21
72.34 25
72.4 26
72.46 25
72.52 27
72.58 24
72.64 37
72.7 23
72.76 29
72.82 24
72.88 20
72.94 25
73 32
73.06 27
73.12 26
73.18 22
73.24 23
73.3 18
73.36 21
73.42 20
73.48 26
73.54 27
73.6 18
73.66 29
73.72 25
73.78 24
73.84 21
73.9 21
73.96 31
74.02 20
74.08 27
74.14 17
74.2 26
74.26 28
74.32 25
74.38 19
74.44 26
74.5 25
74.56 20
74.62 21
74.68 32
74.74 21
74.8 25
74.86 22
74.92 18
74.98 25
75.04 26
75.1 22
75.16 28
75.22 19
75.28 23
75.34 24
75.4 27
75.46 22
75.52 27
75.58 30
75.64 25
75.7 23
75.76 21
75.82 23
75.88 20
75.94 17
76 22
76.06 24
76.12 25
76.18 20
76.24 24
76.3 20
76.36 28
76.42 27
76.48 23
76.54 19
76.6 26
76.66 30
76.72 18
76.78 13
76.84 30
76.9 29
76.96 26
77.02 23
77.08 25
77.14 14
77.2 29
77.26 19
77.32 20
77.38 17
77.44 27
77.5 19
77.56 19
77.62 27
77.68 21
77.74 27
77.8 22
77.86 27
77.92 19
77.98 32
78.04 17
78.1 34
78.16 18
78.22 21
78.28 22
78.34 24
78.4 25
78.46 35
78.52 17
78.58 28
78.64 19
78.7 24
78.76 18
78.82 20
78.88 21
78.94 18
79 20
79.06 19
79.12 28
79.18 16
79.24 15
79.3 24
79.36 16
79.42 25
79.48 30
79.54 16
79.6 20
79.66 31
79.72 23
79.78 19
79.84 23
79.9 22
79.96 20
80.02 21
80.08 19
80.14 30
80.2 17
80.26 24
80.32 19
80.38 23
80.44 23
80.5 23
80.56 21
80.62 22
80.68 19
80.74 20
80.8 28
80.86 23
80.92 23
80.98 19
81.04 15
81.1 26
81.16 23
81.22 14
81.28 18
81.34 30
81.4 17
81.46 21
81.52 11
81.58 11
81.64 22
81.7 15
81.76 21
81.82 24
81.88 16
81.94 19
82 29
82.06 14
82.12 22
82.18 23
82.24 22
82.3 11
82.36 23
82.42 20
82.48 25
82.54 17
82.6 21
82.66 23
82.72 21
82.78 21
82.84 20
82.9 25
82.96 11
83.02 21
83.08 23
83.14 20
83.2 18
83.26 28
83.32 25
83.38 19
83.44 9
83.5 28
83.56 16
83.62 17
83.68 15
83.74 23
83.8 17
83.86 17
83.92 25
83.98 20
84.04 19
84.1 27
84.16 20
84.22 22
84.28 22
84.34 12
84.4 15
84.46 18
84.52 16
84.58 14
84.64 14
84.7 18
84.76 21
84.82 15
84.88 20
84.94 20
85 19
85.06 25
85.12 13
85.18 15
85.24 11
85.3 13
85.36 22
85.42 19
85.48 18
85.54 17
85.6 17
85.66 23
85.72 10
85.78 22
85.84 16
85.9 19
85.96 18
86.02 13
86.08 24
86.14 16
86.2 19
86.26 31
86.32 18
86.38 15
86.44 19
86.5 20
86.56 18
86.62 20
86.68 17
86.74 16
86.8 7
86.86 9
86.92 20
86.98 12
87.04 18
87.1 19
87.16 22
87.22 18
87.28 13
87.34 18
87.4 18
87.46 15
87.52 9
87.58 25
87.64 15
87.7 20
87.76 14
87.82 16
87.88 14
87.94 19
88 14
88.06 11
88.12 15
88.18 21
88.24 13
88.3 14
88.36 8
88.42 23
88.48 20
88.54 11
88.6 18
88.66 15
88.72 18
88.78 18
88.84 11
88.9 19
88.96 18
89.02 12
89.08 13
89.14 13
89.2 8
89.26 15
89.32 16
89.38 15
89.44 13
89.5 14
89.56 16
89.62 15
89.68 11
89.74 18
89.8 23
89.86 16
89.92 16
89.98 16
90 14