File: 研究/Sn/Sn_X線/190306/Si-wefer-2_20190122_mid.TXT
Sample Si-wefer-2
Comments medium
Filename C:\WINDMAX\DATA\SHIMANO\XRD20190306\Si-wefer-2_20190122_mid.raw
Goniometer TTRáV êÖïΩ∫ﬁ∆µ“∞¿(Tsé≤éËìÆ,ADS)
Attachment ïWèÄééóøŒŸ¿ﬁ∞
Monochromater å≈íË”…∏€“∞¿
ScanningMode 2Theta/Theta
ScanningType Continuos Scanning
X-Ray 40kV/300mA
î≠éUΩÿØƒ 2/3Åã
î≠éUècêßå¿ΩÿØƒ 10mm
éUóêΩÿØƒ 2/3Åã
éÛåıΩÿØƒ 0.3mm
±Ø√»∞¿ äJï˙
”…∏€éÛåıΩÿØƒ 0.8mm
Start 10
Stop 90
Step 0.02
10 113
10.06 123
10.12 109
10.18 125
10.24 116
10.3 119
10.36 114
10.42 119
10.48 112
10.54 106
10.6 117
10.66 98
10.72 133
10.78 116
10.84 103
10.9 124
10.96 111
11.02 141
11.08 131
11.14 116
11.2 114
11.26 104
11.32 132
11.38 107
11.44 100
11.5 109
11.56 118
11.62 103
11.68 112
11.74 109
11.8 110
11.86 117
11.92 106
11.98 109
12.04 95
12.1 103
12.16 112
12.22 98
12.28 118
12.34 96
12.4 108
12.46 97
12.52 113
12.58 108
12.64 110
12.7 111
12.76 81
12.82 88
12.88 99
12.94 101
13 102
13.06 121
13.12 94
13.18 102
13.24 98
13.3 92
13.36 105
13.42 96
13.48 93
13.54 94
13.6 87
13.66 84
13.72 98
13.78 96
13.84 116
13.9 79
13.96 110
14.02 85
14.08 87
14.14 87
14.2 64
14.26 101
14.32 99
14.38 93
14.44 105
14.5 93
14.56 102
14.62 69
14.68 98
14.74 86
14.8 72
14.86 98
14.92 90
14.98 77
15.04 98
15.1 86
15.16 92
15.22 95
15.28 103
15.34 96
15.4 82
15.46 82
15.52 86
15.58 71
15.64 92
15.7 84
15.76 81
15.82 86
15.88 90
15.94 96
16 75
16.06 105
16.12 69
16.18 80
16.24 84
16.3 90
16.36 86
16.42 85
16.48 84
16.54 75
16.6 73
16.66 82
16.72 68
16.78 99
16.84 92
16.9 89
16.96 94
17.02 95
17.08 91
17.14 87
17.2 70
17.26 88
17.32 80
17.38 96
17.44 91
17.5 76
17.56 74
17.62 80
17.68 85
17.74 82
17.8 86
17.86 82
17.92 90
17.98 75
18.04 75
18.1 89
18.16 80
18.22 82
18.28 102
18.34 90
18.4 88
18.46 88
18.52 76
18.58 84
18.64 80
18.7 78
18.76 110
18.82 93
18.88 80
18.94 97
19 82
19.06 86
19.12 86
19.18 83
19.24 84
19.3 88
19.36 86
19.42 77
19.48 78
19.54 75
19.6 84
19.66 93
19.72 89
19.78 107
19.84 75
19.9 78
19.96 94
20.02 78
20.08 87
20.14 97
20.2 88
20.26 92
20.32 77
20.38 89
20.44 91
20.5 87
20.56 97
20.62 71
20.68 69
20.74 82
20.8 71
20.86 76
20.92 74
20.98 78
21.04 85
21.1 86
21.16 92
21.22 75
21.28 77
21.34 89
21.4 71
21.46 91
21.52 84
21.58 81
21.64 70
21.7 68
21.76 84
21.82 85
21.88 88
21.94 94
22 71
22.06 93
22.12 69
22.18 96
22.24 90
22.3 90
22.36 89
22.42 85
22.48 80
22.54 99
22.6 104
22.66 100
22.72 61
22.78 88
22.84 90
22.9 87
22.96 79
23.02 91
23.08 87
23.14 81
23.2 78
23.26 88
23.32 80
23.38 97
23.44 107
23.5 97
23.56 65
23.62 103
23.68 95
23.74 79
23.8 96
23.86 84
23.92 98
23.98 90
24.04 86
24.1 109
24.16 112
24.22 114
24.28 113
24.34 87
24.4 110
24.46 98
24.52 101
24.58 95
24.64 91
24.7 101
24.76 92
24.82 104
24.88 78
24.94 101
25 86
25.06 98
25.12 95
25.18 100
25.24 104
25.3 98
25.36 101
25.42 98
25.48 103
25.54 96
25.6 84
25.66 93
25.72 98
25.78 90
25.84 83
25.9 110
25.96 110
26.02 88
26.08 95
26.14 92
26.2 90
26.26 79
26.32 96
26.38 100
26.44 92
26.5 89
26.56 105
26.62 106
26.68 125
26.74 110
26.8 110
26.86 109
26.92 95
26.98 105
27.04 86
27.1 104
27.16 128
27.22 124
27.28 122
27.34 100
27.4 108
27.46 104
27.52 110
27.58 109
27.64 104
27.7 96
27.76 100
27.82 98
27.88 105
27.94 121
28 94
28.06 94
28.12 95
28.18 99
28.24 108
28.3 129
28.36 92
28.42 116
28.48 110
28.54 111
28.6 105
28.66 113
28.72 108
28.78 103
28.84 88
28.9 109
28.96 106
29.02 107
29.08 116
29.14 98
29.2 104
29.26 117
29.32 96
29.38 106
29.44 111
29.5 105
29.56 102
29.62 121
29.68 116
29.74 108
29.8 92
29.86 118
29.92 113
29.98 100
30.04 98
30.1 100
30.16 96
30.22 119
30.28 114
30.34 108
30.4 100
30.46 106
30.52 102
30.58 109
30.64 95
30.7 113
30.76 105
30.82 93
30.88 102
30.94 106
31 99
31.06 107
31.12 118
31.18 101
31.24 96
31.3 116
31.36 111
31.42 106
31.48 93
31.54 92
31.6 112
31.66 119
31.72 111
31.78 102
31.84 110
31.9 92
31.96 106
32.02 106
32.08 93
32.14 102
32.2 101
32.26 96
32.32 114
32.38 90
32.44 94
32.5 113
32.56 102
32.62 102
32.68 87
32.74 105
32.8 88
32.86 105
32.92 104
32.98 95
33.04 100
33.1 100
33.16 107
33.22 110
33.28 98
33.34 100
33.4 84
33.46 97
33.52 104
33.58 96
33.64 75
33.7 73
33.76 75
33.82 78
33.88 90
33.94 85
34 96
34.06 92
34.12 98
34.18 78
34.24 97
34.3 80
34.36 81
34.42 83
34.48 103
34.54 87
34.6 85
34.66 79
34.72 83
34.78 84
34.84 84
34.9 81
34.96 94
35.02 84
35.08 99
35.14 84
35.2 88
35.26 98
35.32 78
35.38 75
35.44 90
35.5 85
35.56 103
35.62 74
35.68 81
35.74 70
35.8 89
35.86 85
35.92 72
35.98 88
36.04 71
36.1 60
36.16 82
36.22 62
36.28 73
36.34 74
36.4 88
36.46 56
36.52 81
36.58 75
36.64 66
36.7 72
36.76 65
36.82 62
36.88 66
36.94 74
37 76
37.06 67
37.12 69
37.18 53
37.24 73
37.3 81
37.36 75
37.42 76
37.48 80
37.54 49
37.6 66
37.66 58
37.72 64
37.78 63
37.84 68
37.9 69
37.96 45
38.02 64
38.08 62
38.14 50
38.2 63
38.26 69
38.32 70
38.38 75
38.44 66
38.5 68
38.56 59
38.62 68
38.68 50
38.74 72
38.8 61
38.86 48
38.92 63
38.98 49
39.04 64
39.1 61
39.16 79
39.22 64
39.28 63
39.34 62
39.4 56
39.46 67
39.52 62
39.58 61
39.64 51
39.7 60
39.76 48
39.82 58
39.88 62
39.94 79
40 59
40.06 62
40.12 65
40.18 60
40.24 55
40.3 50
40.36 70
40.42 58
40.48 67
40.54 74
40.6 53
40.66 40
40.72 62
40.78 57
40.84 60
40.9 68
40.96 43
41.02 54
41.08 57
41.14 60
41.2 45
41.26 63
41.32 48
41.38 64
41.44 53
41.5 62
41.56 61
41.62 60
41.68 50
41.74 44
41.8 68
41.86 51
41.92 51
41.98 57
42.04 56
42.1 65
42.16 75
42.22 50
42.28 52
42.34 49
42.4 57
42.46 58
42.52 46
42.58 54
42.64 46
42.7 58
42.76 53
42.82 56
42.88 53
42.94 70
43 47
43.06 60
43.12 74
43.18 58
43.24 55
43.3 56
43.36 64
43.42 52
43.48 58
43.54 54
43.6 55
43.66 51
43.72 51
43.78 44
43.84 42
43.9 47
43.96 50
44.02 51
44.08 47
44.14 55
44.2 49
44.26 48
44.32 53
44.38 54
44.44 61
44.5 51
44.56 67
44.62 52
44.68 37
44.74 43
44.8 52
44.86 49
44.92 63
44.98 57
45.04 42
45.1 56
45.16 57
45.22 52
45.28 59
45.34 51
45.4 51
45.46 51
45.52 48
45.58 46
45.64 53
45.7 44
45.76 46
45.82 53
45.88 54
45.94 42
46 45
46.06 45
46.12 42
46.18 40
46.24 59
46.3 57
46.36 56
46.42 48
46.48 42
46.54 40
46.6 59
46.66 44
46.72 52
46.78 54
46.84 58
46.9 47
46.96 47
47.02 55
47.08 49
47.14 54
47.2 86
47.26 57
47.32 84
47.38 51
47.44 61
47.5 49
47.56 45
47.62 46
47.68 43
47.74 53
47.8 43
47.86 41
47.92 42
47.98 55
48.04 46
48.1 50
48.16 56
48.22 57
48.28 41
48.34 54
48.4 43
48.46 46
48.52 41
48.58 53
48.64 51
48.7 44
48.76 47
48.82 31
48.88 51
48.94 56
49 53
49.06 58
49.12 51
49.18 53
49.24 42
49.3 43
49.36 47
49.42 49
49.48 48
49.54 47
49.6 41
49.66 47
49.72 49
49.78 40
49.84 42
49.9 38
49.96 53
50.02 54
50.08 44
50.14 38
50.2 40
50.26 45
50.32 49
50.38 51
50.44 39
50.5 39
50.56 46
50.62 44
50.68 40
50.74 53
50.8 50
50.86 53
50.92 40
50.98 56
51.04 43
51.1 50
51.16 54
51.22 28
51.28 32
51.34 49
51.4 47
51.46 43
51.52 41
51.58 56
51.64 53
51.7 33
51.76 34
51.82 44
51.88 44
51.94 52
52 45
52.06 39
52.12 46
52.18 47
52.24 45
52.3 41
52.36 52
52.42 41
52.48 38
52.54 39
52.6 38
52.66 51
52.72 36
52.78 53
52.84 42
52.9 37
52.96 43
53.02 40
53.08 41
53.14 45
53.2 50
53.26 42
53.32 32
53.38 46
53.44 46
53.5 38
53.56 37
53.62 38
53.68 53
53.74 29
53.8 44
53.86 34
53.92 39
53.98 43
54.04 37
54.1 39
54.16 48
54.22 42
54.28 38
54.34 46
54.4 42
54.46 35
54.52 41
54.58 41
54.64 44
54.7 43
54.76 37
54.82 36
54.88 49
54.94 39
55 43
55.06 32
55.12 40
55.18 37
55.24 41
55.3 48
55.36 36
55.42 47
55.48 38
55.54 44
55.6 48
55.66 37
55.72 46
55.78 53
55.84 47
55.9 43
55.96 42
56.02 45
56.08 34
56.14 46
56.2 42
56.26 47
56.32 37
56.38 48
56.44 42
56.5 41
56.56 50
56.62 50
56.68 36
56.74 50
56.8 39
56.86 31
56.92 46
56.98 42
57.04 36
57.1 32
57.16 35
57.22 38
57.28 32
57.34 48
57.4 30
57.46 39
57.52 33
57.58 40
57.64 40
57.7 41
57.76 44
57.82 43
57.88 36
57.94 38
58 42
58.06 40
58.12 39
58.18 45
58.24 32
58.3 40
58.36 35
58.42 39
58.48 37
58.54 42
58.6 49
58.66 33
58.72 42
58.78 44
58.84 45
58.9 41
58.96 55
59.02 40
59.08 34
59.14 39
59.2 41
59.26 43
59.32 45
59.38 42
59.44 46
59.5 43
59.56 40
59.62 56
59.68 40
59.74 47
59.8 41
59.86 28
59.92 57
59.98 42
60.04 42
60.1 48
60.16 32
60.22 43
60.28 35
60.34 32
60.4 36
60.46 35
60.52 54
60.58 44
60.64 31
60.7 32
60.76 59
60.82 41
60.88 43
60.94 37
61 44
61.06 43
61.12 32
61.18 41
61.24 37
61.3 38
61.36 49
61.42 43
61.48 37
61.54 49
61.6 46
61.66 51
61.72 27
61.78 38
61.84 45
61.9 42
61.96 36
62.02 43
62.08 39
62.14 36
62.2 37
62.26 38
62.32 35
62.38 39
62.44 42
62.5 27
62.56 36
62.62 47
62.68 48
62.74 45
62.8 49
62.86 30
62.92 52
62.98 37
63.04 47
63.1 56
63.16 38
63.22 44
63.28 60
63.34 43
63.4 46
63.46 46
63.52 45
63.58 53
63.64 39
63.7 47
63.76 44
63.82 48
63.88 37
63.94 46
64 46
64.06 52
64.12 52
64.18 54
64.24 50
64.3 45
64.36 56
64.42 54
64.48 61
64.54 63
64.6 49
64.66 55
64.72 49
64.78 47
64.84 43
64.9 59
64.96 61
65.02 57
65.08 55
65.14 51
65.2 63
65.26 53
65.32 60
65.38 63
65.44 45
65.5 72
65.56 59
65.62 71
65.68 61
65.74 76
65.8 71
65.86 80
65.92 78
65.98 70
66.04 74
66.1 78
66.16 73
66.22 87
66.28 65
66.34 80
66.4 100
66.46 90
66.52 86
66.58 105
66.64 89
66.7 76
66.76 117
66.82 94
66.88 129
66.94 128
67 117
67.06 106
67.12 101
67.18 129
67.24 119
67.3 120
67.36 136
67.42 138
67.48 115
67.54 140
67.6 171
67.66 157
67.72 161
67.78 179
67.84 155
67.9 165
67.96 171
68.02 200
68.08 218
68.14 226
68.2 216
68.26 227
68.32 194
68.38 246
68.44 234
68.5 215
68.56 258
68.62 260
68.68 284
68.74 326
68.8 304
68.86 373
68.92 520
68.98 971
69.04 2459
69.1 3975
69.16 1303
69.22 1203
69.28 2427
69.34 1116
69.4 470
69.46 325
69.52 299
69.58 274
69.64 279
69.7 221
69.76 226
69.82 239
69.88 231
69.94 236
70 231
70.06 238
70.12 208
70.18 205
70.24 199
70.3 206
70.36 186
70.42 179
70.48 171
70.54 179
70.6 175
70.66 166
70.72 136
70.78 158
70.84 149
70.9 123
70.96 144
71.02 139
71.08 119
71.14 125
71.2 142
71.26 120
71.32 118
71.38 113
71.44 104
71.5 113
71.56 95
71.62 105
71.68 102
71.74 90
71.8 88
71.86 86
71.92 89
71.98 77
72.04 89
72.1 68
72.16 72
72.22 67
72.28 81
72.34 93
72.4 81
72.46 69
72.52 65
72.58 71
72.64 69
72.7 57
72.76 84
72.82 63
72.88 58
72.94 54
73 47
73.06 59
73.12 55
73.18 61
73.24 62
73.3 53
73.36 53
73.42 51
73.48 65
73.54 44
73.6 43
73.66 59
73.72 56
73.78 51
73.84 39
73.9 49
73.96 51
74.02 50
74.08 37
74.14 36
74.2 60
74.26 37
74.32 43
74.38 50
74.44 51
74.5 44
74.56 39
74.62 39
74.68 34
74.74 40
74.8 39
74.86 37
74.92 36
74.98 35
75.04 31
75.1 37
75.16 39
75.22 38
75.28 48
75.34 41
75.4 39
75.46 32
75.52 40
75.58 30
75.64 48
75.7 18
75.76 31
75.82 23
75.88 36
75.94 28
76 35
76.06 32
76.12 18
76.18 30
76.24 32
76.3 36
76.36 33
76.42 20
76.48 32
76.54 30
76.6 35
76.66 25
76.72 31
76.78 39
76.84 29
76.9 30
76.96 35
77.02 26
77.08 34
77.14 22
77.2 29
77.26 28
77.32 33
77.38 32
77.44 34
77.5 35
77.56 39
77.62 21
77.68 26
77.74 27
77.8 24
77.86 24
77.92 28
77.98 27
78.04 36
78.1 20
78.16 25
78.22 34
78.28 21
78.34 25
78.4 29
78.46 36
78.52 21
78.58 26
78.64 17
78.7 24
78.76 22
78.82 22
78.88 16
78.94 13
79 27
79.06 28
79.12 21
79.18 17
79.24 24
79.3 27
79.36 17
79.42 18
79.48 16
79.54 18
79.6 25
79.66 30
79.72 33
79.78 18
79.84 13
79.9 31
79.96 26
80.02 30
80.08 18
80.14 16
80.2 21
80.26 27
80.32 23
80.38 25
80.44 18
80.5 21
80.56 15
80.62 30
80.68 21
80.74 20
80.8 21
80.86 25
80.92 22
80.98 25
81.04 17
81.1 20
81.16 20
81.22 24
81.28 23
81.34 28
81.4 25
81.46 27
81.52 22
81.58 19
81.64 18
81.7 11
81.76 17
81.82 23
81.88 21
81.94 26
82 14
82.06 20
82.12 19
82.18 18
82.24 20
82.3 25
82.36 13
82.42 16
82.48 17
82.54 13
82.6 21
82.66 19
82.72 16
82.78 14
82.84 21
82.9 18
82.96 19
83.02 23
83.08 20
83.14 25
83.2 25
83.26 16
83.32 25
83.38 11
83.44 18
83.5 18
83.56 14
83.62 21
83.68 19
83.74 11
83.8 20
83.86 15
83.92 20
83.98 14
84.04 14
84.1 21
84.16 18
84.22 19
84.28 25
84.34 17
84.4 24
84.46 18
84.52 30
84.58 22
84.64 19
84.7 24
84.76 15
84.82 20
84.88 19
84.94 18
85 12
85.06 16
85.12 12
85.18 18
85.24 18
85.3 25
85.36 17
85.42 18
85.48 14
85.54 15
85.6 19
85.66 16
85.72 21
85.78 16
85.84 8
85.9 20
85.96 14
86.02 13
86.08 23
86.14 16
86.2 14
86.26 12
86.32 20
86.38 22
86.44 20
86.5 11
86.56 24
86.62 19
86.68 13
86.74 19
86.8 16
86.86 25
86.92 19
86.98 16
87.04 14
87.1 12
87.16 20
87.22 13
87.28 15
87.34 11
87.4 15
87.46 16
87.52 17
87.58 13
87.64 14
87.7 13
87.76 20
87.82 19
87.88 18
87.94 17
88 11
88.06 20
88.12 11
88.18 10
88.24 15
88.3 16
88.36 21
88.42 14
88.48 11
88.54 12
88.6 18
88.66 9
88.72 15
88.78 18
88.84 22
88.9 9
88.96 13
89.02 15
89.08 7
89.14 16
89.2 14
89.26 18
89.32 12
89.38 12
89.44 11
89.5 10
89.56 6
89.62 14
89.68 10
89.74 17
89.8 19
89.86 15
89.92 13
89.98 14
90 8