File: 研究/Sn/Sn_X線/190306/Si-wefer_20190122_mid.TXT
Sample Si-wefer
Comments medium
Filename C:\WINDMAX\DATA\SHIMANO\XRD20190306\Si-wefer_20190122_mid.raw
Goniometer TTRáV êÖïΩ∫ﬁ∆µ“∞¿(Tsé≤éËìÆ,ADS)
Attachment ïWèÄééóøŒŸ¿ﬁ∞
Monochromater å≈íË”…∏€“∞¿
ScanningMode 2Theta/Theta
ScanningType Continuos Scanning
X-Ray 40kV/300mA
î≠éUΩÿØƒ 2/3Åã
î≠éUècêßå¿ΩÿØƒ 10mm
éUóêΩÿØƒ 2/3Åã
éÛåıΩÿØƒ 0.3mm
±Ø√»∞¿ äJï˙
”…∏€éÛåıΩÿØƒ 0.8mm
Start 10
Stop 90
Step 0.02
10 126
10.06 125
10.12 147
10.18 124
10.24 129
10.3 114
10.36 119
10.42 112
10.48 117
10.54 121
10.6 128
10.66 118
10.72 109
10.78 120
10.84 121
10.9 107
10.96 125
11.02 112
11.08 110
11.14 110
11.2 117
11.26 119
11.32 113
11.38 104
11.44 80
11.5 99
11.56 108
11.62 94
11.68 108
11.74 117
11.8 93
11.86 113
11.92 94
11.98 103
12.04 108
12.1 138
12.16 122
12.22 108
12.28 83
12.34 121
12.4 100
12.46 87
12.52 78
12.58 99
12.64 111
12.7 113
12.76 96
12.82 96
12.88 93
12.94 74
13 97
13.06 79
13.12 96
13.18 103
13.24 102
13.3 89
13.36 101
13.42 103
13.48 103
13.54 109
13.6 84
13.66 107
13.72 87
13.78 93
13.84 84
13.9 102
13.96 119
14.02 88
14.08 90
14.14 103
14.2 101
14.26 92
14.32 96
14.38 97
14.44 83
14.5 98
14.56 73
14.62 96
14.68 111
14.74 88
14.8 97
14.86 86
14.92 75
14.98 87
15.04 94
15.1 87
15.16 100
15.22 91
15.28 80
15.34 75
15.4 87
15.46 89
15.52 73
15.58 100
15.64 91
15.7 82
15.76 91
15.82 97
15.88 76
15.94 75
16 98
16.06 90
16.12 98
16.18 82
16.24 75
16.3 80
16.36 84
16.42 85
16.48 83
16.54 88
16.6 97
16.66 97
16.72 88
16.78 90
16.84 101
16.9 86
16.96 76
17.02 80
17.08 100
17.14 86
17.2 80
17.26 77
17.32 76
17.38 67
17.44 79
17.5 78
17.56 82
17.62 92
17.68 84
17.74 77
17.8 101
17.86 91
17.92 77
17.98 87
18.04 104
18.1 89
18.16 77
18.22 85
18.28 91
18.34 78
18.4 92
18.46 84
18.52 75
18.58 96
18.64 92
18.7 90
18.76 89
18.82 74
18.88 78
18.94 82
19 102
19.06 92
19.12 86
19.18 96
19.24 94
19.3 87
19.36 89
19.42 84
19.48 80
19.54 69
19.6 87
19.66 82
19.72 82
19.78 99
19.84 94
19.9 92
19.96 100
20.02 103
20.08 80
20.14 98
20.2 88
20.26 82
20.32 67
20.38 91
20.44 62
20.5 71
20.56 94
20.62 92
20.68 102
20.74 80
20.8 83
20.86 92
20.92 79
20.98 99
21.04 85
21.1 89
21.16 83
21.22 73
21.28 114
21.34 83
21.4 83
21.46 88
21.52 83
21.58 95
21.64 98
21.7 86
21.76 75
21.82 101
21.88 92
21.94 78
22 105
22.06 79
22.12 86
22.18 98
22.24 111
22.3 111
22.36 95
22.42 75
22.48 76
22.54 94
22.6 108
22.66 97
22.72 76
22.78 100
22.84 109
22.9 105
22.96 94
23.02 108
23.08 97
23.14 101
23.2 104
23.26 94
23.32 108
23.38 96
23.44 117
23.5 101
23.56 92
23.62 100
23.68 100
23.74 103
23.8 98
23.86 87
23.92 85
23.98 117
24.04 92
24.1 106
24.16 108
24.22 111
24.28 105
24.34 104
24.4 94
24.46 97
24.52 100
24.58 91
24.64 106
24.7 98
24.76 99
24.82 113
24.88 106
24.94 86
25 109
25.06 109
25.12 105
25.18 119
25.24 83
25.3 98
25.36 89
25.42 109
25.48 106
25.54 99
25.6 115
25.66 122
25.72 97
25.78 110
25.84 115
25.9 92
25.96 98
26.02 98
26.08 107
26.14 121
26.2 100
26.26 112
26.32 109
26.38 98
26.44 109
26.5 92
26.56 115
26.62 112
26.68 106
26.74 100
26.8 127
26.86 100
26.92 126
26.98 114
27.04 113
27.1 129
27.16 104
27.22 106
27.28 114
27.34 112
27.4 105
27.46 100
27.52 94
27.58 97
27.64 100
27.7 104
27.76 112
27.82 98
27.88 100
27.94 135
28 123
28.06 109
28.12 115
28.18 95
28.24 122
28.3 108
28.36 119
28.42 108
28.48 112
28.54 115
28.6 118
28.66 112
28.72 114
28.78 120
28.84 112
28.9 112
28.96 121
29.02 121
29.08 108
29.14 100
29.2 116
29.26 102
29.32 93
29.38 102
29.44 109
29.5 127
29.56 102
29.62 112
29.68 122
29.74 117
29.8 99
29.86 114
29.92 126
29.98 114
30.04 102
30.1 113
30.16 95
30.22 112
30.28 73
30.34 103
30.4 93
30.46 119
30.52 107
30.58 101
30.64 114
30.7 94
30.76 117
30.82 120
30.88 106
30.94 100
31 114
31.06 111
31.12 100
31.18 101
31.24 104
31.3 96
31.36 96
31.42 101
31.48 91
31.54 95
31.6 94
31.66 114
31.72 108
31.78 104
31.84 97
31.9 92
31.96 105
32.02 92
32.08 109
32.14 112
32.2 93
32.26 108
32.32 106
32.38 101
32.44 89
32.5 95
32.56 89
32.62 98
32.68 102
32.74 99
32.8 118
32.86 101
32.92 82
32.98 102
33.04 105
33.1 91
33.16 81
33.22 105
33.28 90
33.34 93
33.4 93
33.46 86
33.52 106
33.58 92
33.64 98
33.7 71
33.76 89
33.82 101
33.88 114
33.94 72
34 89
34.06 98
34.12 82
34.18 85
34.24 99
34.3 97
34.36 67
34.42 69
34.48 84
34.54 75
34.6 79
34.66 84
34.72 95
34.78 74
34.84 72
34.9 69
34.96 67
35.02 82
35.08 76
35.14 86
35.2 62
35.26 60
35.32 71
35.38 74
35.44 76
35.5 71
35.56 68
35.62 82
35.68 71
35.74 67
35.8 71
35.86 65
35.92 63
35.98 66
36.04 72
36.1 67
36.16 76
36.22 58
36.28 59
36.34 63
36.4 73
36.46 74
36.52 83
36.58 69
36.64 72
36.7 63
36.76 57
36.82 59
36.88 71
36.94 59
37 62
37.06 63
37.12 75
37.18 62
37.24 62
37.3 60
37.36 56
37.42 64
37.48 62
37.54 65
37.6 60
37.66 66
37.72 59
37.78 66
37.84 56
37.9 60
37.96 46
38.02 62
38.08 52
38.14 53
38.2 47
38.26 62
38.32 49
38.38 54
38.44 62
38.5 56
38.56 65
38.62 57
38.68 52
38.74 64
38.8 52
38.86 48
38.92 52
38.98 48
39.04 65
39.1 59
39.16 67
39.22 60
39.28 39
39.34 47
39.4 57
39.46 46
39.52 63
39.58 47
39.64 63
39.7 53
39.76 52
39.82 56
39.88 50
39.94 49
40 47
40.06 53
40.12 52
40.18 64
40.24 72
40.3 56
40.36 59
40.42 47
40.48 59
40.54 59
40.6 44
40.66 50
40.72 54
40.78 42
40.84 63
40.9 53
40.96 63
41.02 51
41.08 51
41.14 42
41.2 41
41.26 59
41.32 52
41.38 50
41.44 61
41.5 54
41.56 62
41.62 55
41.68 64
41.74 58
41.8 53
41.86 45
41.92 70
41.98 53
42.04 78
42.1 56
42.16 46
42.22 61
42.28 52
42.34 48
42.4 57
42.46 57
42.52 55
42.58 46
42.64 50
42.7 56
42.76 59
42.82 58
42.88 44
42.94 59
43 44
43.06 59
43.12 48
43.18 62
43.24 50
43.3 38
43.36 44
43.42 55
43.48 41
43.54 46
43.6 52
43.66 42
43.72 45
43.78 54
43.84 47
43.9 53
43.96 54
44.02 34
44.08 60
44.14 58
44.2 49
44.26 51
44.32 47
44.38 41
44.44 52
44.5 56
44.56 58
44.62 50
44.68 44
44.74 53
44.8 51
44.86 55
44.92 64
44.98 48
45.04 57
45.1 44
45.16 50
45.22 53
45.28 40
45.34 48
45.4 48
45.46 58
45.52 49
45.58 42
45.64 37
45.7 43
45.76 53
45.82 45
45.88 45
45.94 51
46 44
46.06 36
46.12 46
46.18 48
46.24 39
46.3 47
46.36 49
46.42 44
46.48 47
46.54 55
46.6 49
46.66 39
46.72 41
46.78 41
46.84 29
46.9 34
46.96 40
47.02 43
47.08 46
47.14 49
47.2 60
47.26 53
47.32 56
47.38 52
47.44 51
47.5 41
47.56 54
47.62 44
47.68 46
47.74 39
47.8 44
47.86 48
47.92 47
47.98 50
48.04 36
48.1 48
48.16 33
48.22 42
48.28 44
48.34 40
48.4 48
48.46 51
48.52 35
48.58 45
48.64 39
48.7 45
48.76 32
48.82 34
48.88 43
48.94 50
49 38
49.06 41
49.12 42
49.18 45
49.24 44
49.3 31
49.36 27
49.42 36
49.48 35
49.54 47
49.6 39
49.66 33
49.72 42
49.78 37
49.84 24
49.9 51
49.96 46
50.02 42
50.08 33
50.14 37
50.2 37
50.26 38
50.32 29
50.38 35
50.44 36
50.5 36
50.56 45
50.62 40
50.68 45
50.74 43
50.8 41
50.86 37
50.92 40
50.98 35
51.04 33
51.1 44
51.16 37
51.22 43
51.28 31
51.34 27
51.4 39
51.46 46
51.52 39
51.58 35
51.64 40
51.7 36
51.76 36
51.82 29
51.88 24
51.94 34
52 35
52.06 41
52.12 35
52.18 43
52.24 39
52.3 41
52.36 44
52.42 40
52.48 38
52.54 21
52.6 44
52.66 37
52.72 32
52.78 52
52.84 35
52.9 39
52.96 34
53.02 40
53.08 41
53.14 39
53.2 34
53.26 28
53.32 45
53.38 45
53.44 35
53.5 31
53.56 36
53.62 28
53.68 35
53.74 34
53.8 47
53.86 32
53.92 32
53.98 42
54.04 39
54.1 28
54.16 31
54.22 32
54.28 33
54.34 39
54.4 28
54.46 29
54.52 35
54.58 41
54.64 32
54.7 22
54.76 33
54.82 28
54.88 39
54.94 26
55 35
55.06 32
55.12 37
55.18 35
55.24 26
55.3 28
55.36 34
55.42 35
55.48 46
55.54 44
55.6 37
55.66 31
55.72 35
55.78 32
55.84 31
55.9 33
55.96 35
56.02 32
56.08 32
56.14 41
56.2 31
56.26 47
56.32 29
56.38 39
56.44 32
56.5 25
56.56 25
56.62 30
56.68 37
56.74 38
56.8 25
56.86 38
56.92 32
56.98 38
57.04 25
57.1 33
57.16 26
57.22 37
57.28 30
57.34 32
57.4 41
57.46 40
57.52 36
57.58 37
57.64 34
57.7 38
57.76 33
57.82 24
57.88 24
57.94 31
58 24
58.06 34
58.12 27
58.18 33
58.24 41
58.3 21
58.36 38
58.42 32
58.48 37
58.54 37
58.6 33
58.66 29
58.72 29
58.78 29
58.84 31
58.9 36
58.96 36
59.02 36
59.08 30
59.14 32
59.2 29
59.26 41
59.32 32
59.38 25
59.44 36
59.5 35
59.56 38
59.62 32
59.68 30
59.74 24
59.8 35
59.86 37
59.92 30
59.98 35
60.04 33
60.1 44
60.16 38
60.22 28
60.28 30
60.34 27
60.4 36
60.46 29
60.52 29
60.58 44
60.64 38
60.7 38
60.76 47
60.82 28
60.88 36
60.94 45
61 30
61.06 38
61.12 38
61.18 38
61.24 28
61.3 22
61.36 37
61.42 31
61.48 23
61.54 41
61.6 40
61.66 47
61.72 24
61.78 45
61.84 39
61.9 26
61.96 34
62.02 31
62.08 39
62.14 46
62.2 28
62.26 32
62.32 33
62.38 34
62.44 38
62.5 39
62.56 39
62.62 32
62.68 39
62.74 43
62.8 29
62.86 30
62.92 46
62.98 41
63.04 40
63.1 40
63.16 36
63.22 37
63.28 38
63.34 45
63.4 30
63.46 35
63.52 37
63.58 32
63.64 29
63.7 48
63.76 48
63.82 41
63.88 30
63.94 36
64 49
64.06 55
64.12 33
64.18 45
64.24 37
64.3 42
64.36 33
64.42 36
64.48 46
64.54 41
64.6 34
64.66 34
64.72 41
64.78 42
64.84 42
64.9 38
64.96 45
65.02 67
65.08 47
65.14 51
65.2 35
65.26 61
65.32 54
65.38 52
65.44 50
65.5 64
65.56 53
65.62 67
65.68 66
65.74 68
65.8 71
65.86 62
65.92 67
65.98 60
66.04 65
66.1 62
66.16 64
66.22 70
66.28 81
66.34 77
66.4 74
66.46 77
66.52 95
66.58 84
66.64 66
66.7 82
66.76 99
66.82 87
66.88 84
66.94 81
67 111
67.06 111
67.12 115
67.18 139
67.24 108
67.3 127
67.36 118
67.42 131
67.48 126
67.54 136
67.6 150
67.66 146
67.72 168
67.78 147
67.84 163
67.9 164
67.96 159
68.02 184
68.08 205
68.14 201
68.2 195
68.26 183
68.32 205
68.38 231
68.44 201
68.5 214
68.56 206
68.62 225
68.68 250
68.74 300
68.8 320
68.86 360
68.92 525
68.98 933
69.04 2692
69.1 3887
69.16 1260
69.22 1210
69.28 2350
69.34 930
69.4 404
69.46 295
69.52 257
69.58 250
69.64 255
69.7 193
69.76 206
69.82 207
69.88 206
69.94 195
70 216
70.06 177
70.12 182
70.18 192
70.24 176
70.3 174
70.36 194
70.42 165
70.48 157
70.54 139
70.6 165
70.66 171
70.72 129
70.78 137
70.84 138
70.9 123
70.96 127
71.02 149
71.08 122
71.14 118
71.2 110
71.26 108
71.32 107
71.38 99
71.44 95
71.5 109
71.56 99
71.62 75
71.68 71
71.74 87
71.8 85
71.86 96
71.92 73
71.98 89
72.04 70
72.1 76
72.16 60
72.22 65
72.28 77
72.34 73
72.4 77
72.46 57
72.52 51
72.58 61
72.64 63
72.7 55
72.76 60
72.82 52
72.88 41
72.94 49
73 54
73.06 48
73.12 49
73.18 49
73.24 48
73.3 58
73.36 52
73.42 46
73.48 44
73.54 39
73.6 54
73.66 35
73.72 46
73.78 40
73.84 41
73.9 46
73.96 48
74.02 43
74.08 47
74.14 39
74.2 30
74.26 44
74.32 33
74.38 32
74.44 28
74.5 41
74.56 32
74.62 29
74.68 41
74.74 41
74.8 28
74.86 25
74.92 34
74.98 34
75.04 25
75.1 28
75.16 33
75.22 31
75.28 22
75.34 26
75.4 28
75.46 36
75.52 32
75.58 18
75.64 26
75.7 24
75.76 27
75.82 29
75.88 27
75.94 31
76 25
76.06 19
76.12 25
76.18 21
76.24 18
76.3 22
76.36 29
76.42 30
76.48 22
76.54 28
76.6 28
76.66 25
76.72 27
76.78 23
76.84 29
76.9 19
76.96 20
77.02 19
77.08 24
77.14 19
77.2 26
77.26 24
77.32 27
77.38 13
77.44 17
77.5 20
77.56 30
77.62 29
77.68 28
77.74 25
77.8 15
77.86 17
77.92 25
77.98 25
78.04 22
78.1 27
78.16 24
78.22 23
78.28 19
78.34 28
78.4 20
78.46 22
78.52 19
78.58 19
78.64 26
78.7 20
78.76 16
78.82 22
78.88 14
78.94 12
79 17
79.06 19
79.12 29
79.18 26
79.24 20
79.3 24
79.36 15
79.42 20
79.48 18
79.54 17
79.6 12
79.66 16
79.72 8
79.78 11
79.84 12
79.9 25
79.96 14
80.02 22
80.08 16
80.14 17
80.2 25
80.26 25
80.32 11
80.38 24
80.44 20
80.5 16
80.56 16
80.62 14
80.68 23
80.74 20
80.8 26
80.86 26
80.92 23
80.98 25
81.04 23
81.1 19
81.16 16
81.22 20
81.28 21
81.34 12
81.4 21
81.46 18
81.52 17
81.58 10
81.64 19
81.7 21
81.76 16
81.82 18
81.88 11
81.94 12
82 18
82.06 16
82.12 17
82.18 16
82.24 16
82.3 22
82.36 14
82.42 12
82.48 10
82.54 20
82.6 23
82.66 11
82.72 26
82.78 19
82.84 12
82.9 14
82.96 17
83.02 9
83.08 22
83.14 14
83.2 12
83.26 20
83.32 29
83.38 18
83.44 19
83.5 13
83.56 13
83.62 14
83.68 14
83.74 16
83.8 16
83.86 22
83.92 13
83.98 21
84.04 11
84.1 16
84.16 12
84.22 16
84.28 22
84.34 18
84.4 20
84.46 13
84.52 14
84.58 20
84.64 15
84.7 14
84.76 17
84.82 16
84.88 14
84.94 17
85 13
85.06 18
85.12 11
85.18 14
85.24 16
85.3 13
85.36 10
85.42 16
85.48 21
85.54 16
85.6 13
85.66 19
85.72 13
85.78 15
85.84 16
85.9 14
85.96 19
86.02 13
86.08 11
86.14 22
86.2 21
86.26 8
86.32 13
86.38 15
86.44 20
86.5 19
86.56 17
86.62 12
86.68 11
86.74 24
86.8 15
86.86 11
86.92 14
86.98 11
87.04 13
87.1 9
87.16 11
87.22 8
87.28 13
87.34 13
87.4 12
87.46 11
87.52 13
87.58 9
87.64 7
87.7 9
87.76 15
87.82 13
87.88 16
87.94 14
88 15
88.06 7
88.12 13
88.18 16
88.24 15
88.3 12
88.36 11
88.42 14
88.48 14
88.54 12
88.6 17
88.66 15
88.72 14
88.78 21
88.84 6
88.9 7
88.96 10
89.02 14
89.08 15
89.14 14
89.2 18
89.26 19
89.32 13
89.38 14
89.44 12
89.5 14
89.56 13
89.62 12
89.68 12
89.74 14
89.8 19
89.86 16
89.92 12
89.98 6
90 9