File: 研究/Sn/Sn_X線/190306/Si_wefer2_20190122.TXT
Sample Si_wefer-2
Comments rapid
Filename C:\Windmax\Data\shimano\XRD20190306\Si_wefer2_20190122.raw
Goniometer TTRáV êÖïΩ∫ﬁ∆µ“∞¿(Tsé≤éËìÆ,ADS)
Attachment ïWèÄééóøŒŸ¿ﬁ∞
Monochromater å≈íË”…∏€“∞¿
ScanningMode 2Theta/Theta
ScanningType Continuos Scanning
X-Ray 40kV/300mA
î≠éUΩÿØƒ 2/3Åã
î≠éUècêßå¿ΩÿØƒ 2mm
éUóêΩÿØƒ 2/3Åã
éÛåıΩÿØƒ 0.3mm
±Ø√»∞¿ äJï˙
”…∏€éÛåıΩÿØƒ 0.8mm
Start 10
Stop 90
Step 0.02
10 28
10.06 29
10.12 38
10.18 25
10.24 29
10.3 44
10.36 25
10.42 31
10.48 21
10.54 32
10.6 32
10.66 34
10.72 36
10.78 23
10.84 36
10.9 28
10.96 34
11.02 30
11.08 25
11.14 21
11.2 30
11.26 31
11.32 28
11.38 21
11.44 25
11.5 31
11.56 21
11.62 35
11.68 29
11.74 18
11.8 35
11.86 20
11.92 25
11.98 21
12.04 19
12.1 30
12.16 19
12.22 29
12.28 20
12.34 29
12.4 26
12.46 21
12.52 28
12.58 19
12.64 23
12.7 24
12.76 22
12.82 23
12.88 23
12.94 26
13 25
13.06 24
13.12 32
13.18 27
13.24 21
13.3 28
13.36 24
13.42 25
13.48 20
13.54 20
13.6 27
13.66 28
13.72 24
13.78 22
13.84 22
13.9 24
13.96 19
14.02 18
14.08 29
14.14 21
14.2 16
14.26 24
14.32 22
14.38 20
14.44 16
14.5 25
14.56 18
14.62 24
14.68 21
14.74 35
14.8 21
14.86 25
14.92 29
14.98 23
15.04 23
15.1 31
15.16 17
15.22 17
15.28 24
15.34 22
15.4 14
15.46 25
15.52 23
15.58 22
15.64 22
15.7 31
15.76 22
15.82 22
15.88 23
15.94 22
16 17
16.06 22
16.12 28
16.18 23
16.24 12
16.3 23
16.36 17
16.42 21
16.48 29
16.54 26
16.6 18
16.66 22
16.72 23
16.78 19
16.84 21
16.9 23
16.96 22
17.02 26
17.08 23
17.14 22
17.2 23
17.26 23
17.32 22
17.38 19
17.44 17
17.5 21
17.56 20
17.62 18
17.68 23
17.74 22
17.8 19
17.86 24
17.92 19
17.98 22
18.04 22
18.1 27
18.16 24
18.22 17
18.28 20
18.34 26
18.4 23
18.46 25
18.52 21
18.58 20
18.64 23
18.7 22
18.76 29
18.82 18
18.88 25
18.94 21
19 27
19.06 21
19.12 19
19.18 21
19.24 34
19.3 26
19.36 23
19.42 29
19.48 28
19.54 21
19.6 30
19.66 26
19.72 18
19.78 25
19.84 30
19.9 31
19.96 19
20.02 22
20.08 19
20.14 21
20.2 29
20.26 35
20.32 31
20.38 18
20.44 27
20.5 29
20.56 26
20.62 21
20.68 24
20.74 22
20.8 22
20.86 27
20.92 15
20.98 29
21.04 26
21.1 29
21.16 24
21.22 25
21.28 31
21.34 19
21.4 21
21.46 29
21.52 16
21.58 26
21.64 29
21.7 28
21.76 21
21.82 27
21.88 34
21.94 22
22 24
22.06 28
22.12 20
22.18 25
22.24 27
22.3 19
22.36 33
22.42 19
22.48 19
22.54 28
22.6 27
22.66 25
22.72 23
22.78 24
22.84 28
22.9 30
22.96 21
23.02 25
23.08 20
23.14 23
23.2 22
23.26 20
23.32 24
23.38 29
23.44 23
23.5 21
23.56 33
23.62 25
23.68 23
23.74 25
23.8 23
23.86 28
23.92 34
23.98 21
24.04 35
24.1 29
24.16 25
24.22 22
24.28 29
24.34 23
24.4 22
24.46 21
24.52 26
24.58 20
24.64 25
24.7 32
24.76 15
24.82 20
24.88 25
24.94 30
25 21
25.06 24
25.12 18
25.18 24
25.24 29
25.3 19
25.36 33
25.42 26
25.48 26
25.54 21
25.6 26
25.66 15
25.72 21
25.78 22
25.84 24
25.9 21
25.96 26
26.02 24
26.08 35
26.14 26
26.2 16
26.26 30
26.32 16
26.38 23
26.44 26
26.5 20
26.56 28
26.62 22
26.68 34
26.74 21
26.8 33
26.86 29
26.92 21
26.98 28
27.04 23
27.1 27
27.16 28
27.22 17
27.28 23
27.34 24
27.4 33
27.46 31
27.52 31
27.58 23
27.64 18
27.7 32
27.76 22
27.82 24
27.88 23
27.94 34
28 25
28.06 19
28.12 27
28.18 22
28.24 21
28.3 26
28.36 25
28.42 35
28.48 24
28.54 13
28.6 32
28.66 34
28.72 26
28.78 15
28.84 22
28.9 32
28.96 30
29.02 22
29.08 28
29.14 26
29.2 26
29.26 24
29.32 25
29.38 28
29.44 26
29.5 15
29.56 27
29.62 34
29.68 17
29.74 28
29.8 33
29.86 27
29.92 18
29.98 24
30.04 13
30.1 26
30.16 23
30.22 24
30.28 24
30.34 36
30.4 25
30.46 20
30.52 26
30.58 23
30.64 22
30.7 16
30.76 26
30.82 29
30.88 22
30.94 27
31 23
31.06 23
31.12 28
31.18 28
31.24 28
31.3 19
31.36 19
31.42 19
31.48 25
31.54 30
31.6 30
31.66 24
31.72 30
31.78 12
31.84 27
31.9 34
31.96 26
32.02 21
32.08 29
32.14 15
32.2 23
32.26 19
32.32 20
32.38 23
32.44 19
32.5 22
32.56 24
32.62 18
32.68 16
32.74 27
32.8 32
32.86 17
32.92 33
32.98 22
33.04 28
33.1 28
33.16 20
33.22 20
33.28 24
33.34 23
33.4 24
33.46 15
33.52 26
33.58 30
33.64 36
33.7 29
33.76 24
33.82 16
33.88 26
33.94 24
34 17
34.06 25
34.12 22
34.18 21
34.24 20
34.3 18
34.36 31
34.42 24
34.48 27
34.54 22
34.6 23
34.66 21
34.72 21
34.78 27
34.84 22
34.9 21
34.96 24
35.02 18
35.08 24
35.14 29
35.2 18
35.26 20
35.32 20
35.38 17
35.44 24
35.5 23
35.56 23
35.62 20
35.68 24
35.74 19
35.8 23
35.86 15
35.92 17
35.98 21
36.04 25
36.1 29
36.16 22
36.22 19
36.28 22
36.34 20
36.4 19
36.46 25
36.52 20
36.58 21
36.64 14
36.7 22
36.76 24
36.82 16
36.88 15
36.94 25
37 13
37.06 19
37.12 28
37.18 24
37.24 18
37.3 23
37.36 19
37.42 18
37.48 22
37.54 18
37.6 13
37.66 18
37.72 19
37.78 18
37.84 17
37.9 17
37.96 16
38.02 21
38.08 12
38.14 26
38.2 16
38.26 20
38.32 12
38.38 25
38.44 14
38.5 22
38.56 12
38.62 20
38.68 17
38.74 17
38.8 24
38.86 19
38.92 20
38.98 25
39.04 20
39.1 22
39.16 15
39.22 18
39.28 23
39.34 19
39.4 17
39.46 24
39.52 13
39.58 19
39.64 12
39.7 25
39.76 25
39.82 14
39.88 15
39.94 23
40 23
40.06 23
40.12 19
40.18 18
40.24 21
40.3 15
40.36 18
40.42 26
40.48 17
40.54 25
40.6 19
40.66 22
40.72 18
40.78 25
40.84 11
40.9 15
40.96 18
41.02 20
41.08 25
41.14 20
41.2 20
41.26 22
41.32 22
41.38 26
41.44 14
41.5 27
41.56 19
41.62 20
41.68 18
41.74 20
41.8 18
41.86 18
41.92 16
41.98 14
42.04 18
42.1 17
42.16 18
42.22 20
42.28 15
42.34 15
42.4 31
42.46 17
42.52 20
42.58 16
42.64 20
42.7 22
42.76 13
42.82 17
42.88 13
42.94 13
43 18
43.06 15
43.12 12
43.18 26
43.24 17
43.3 24
43.36 20
43.42 23
43.48 13
43.54 12
43.6 19
43.66 24
43.72 22
43.78 18
43.84 14
43.9 19
43.96 22
44.02 13
44.08 14
44.14 18
44.2 25
44.26 20
44.32 31
44.38 28
44.44 19
44.5 20
44.56 12
44.62 19
44.68 14
44.74 14
44.8 23
44.86 14
44.92 22
44.98 9
45.04 14
45.1 12
45.16 24
45.22 15
45.28 16
45.34 14
45.4 16
45.46 20
45.52 14
45.58 18
45.64 15
45.7 24
45.76 16
45.82 13
45.88 10
45.94 11
46 18
46.06 20
46.12 22
46.18 18
46.24 9
46.3 17
46.36 18
46.42 17
46.48 17
46.54 19
46.6 17
46.66 15
46.72 20
46.78 16
46.84 15
46.9 12
46.96 14
47.02 16
47.08 17
47.14 15
47.2 14
47.26 18
47.32 17
47.38 23
47.44 13
47.5 21
47.56 18
47.62 19
47.68 14
47.74 15
47.8 11
47.86 17
47.92 11
47.98 21
48.04 13
48.1 10
48.16 13
48.22 23
48.28 16
48.34 17
48.4 14
48.46 13
48.52 15
48.58 22
48.64 14
48.7 15
48.76 9
48.82 18
48.88 14
48.94 9
49 15
49.06 13
49.12 19
49.18 13
49.24 15
49.3 10
49.36 14
49.42 15
49.48 15
49.54 21
49.6 12
49.66 9
49.72 16
49.78 16
49.84 17
49.9 19
49.96 15
50.02 17
50.08 15
50.14 22
50.2 17
50.26 11
50.32 19
50.38 13
50.44 17
50.5 11
50.56 21
50.62 18
50.68 9
50.74 6
50.8 20
50.86 15
50.92 20
50.98 15
51.04 16
51.1 16
51.16 18
51.22 12
51.28 13
51.34 20
51.4 15
51.46 18
51.52 17
51.58 8
51.64 12
51.7 21
51.76 17
51.82 17
51.88 13
51.94 15
52 9
52.06 20
52.12 13
52.18 19
52.24 12
52.3 17
52.36 17
52.42 16
52.48 12
52.54 21
52.6 17
52.66 8
52.72 11
52.78 13
52.84 19
52.9 16
52.96 15
53.02 18
53.08 14
53.14 11
53.2 7
53.26 12
53.32 15
53.38 11
53.44 8
53.5 14
53.56 11
53.62 14
53.68 11
53.74 20
53.8 20
53.86 13
53.92 14
53.98 17
54.04 18
54.1 15
54.16 5
54.22 15
54.28 15
54.34 13
54.4 9
54.46 23
54.52 15
54.58 18
54.64 12
54.7 15
54.76 14
54.82 12
54.88 12
54.94 14
55 11
55.06 13
55.12 12
55.18 6
55.24 14
55.3 11
55.36 13
55.42 14
55.48 14
55.54 12
55.6 18
55.66 16
55.72 13
55.78 12
55.84 14
55.9 8
55.96 16
56.02 8
56.08 13
56.14 18
56.2 13
56.26 11
56.32 14
56.38 13
56.44 13
56.5 22
56.56 21
56.62 20
56.68 16
56.74 14
56.8 17
56.86 11
56.92 11
56.98 16
57.04 10
57.1 20
57.16 13
57.22 13
57.28 12
57.34 15
57.4 14
57.46 18
57.52 15
57.58 11
57.64 13
57.7 17
57.76 17
57.82 22
57.88 18
57.94 12
58 15
58.06 12
58.12 20
58.18 16
58.24 8
58.3 8
58.36 14
58.42 12
58.48 12
58.54 21
58.6 15
58.66 24
58.72 19
58.78 9
58.84 14
58.9 13
58.96 10
59.02 14
59.08 24
59.14 21
59.2 11
59.26 8
59.32 16
59.38 10
59.44 7
59.5 6
59.56 11
59.62 9
59.68 19
59.74 14
59.8 11
59.86 12
59.92 6
59.98 10
60.04 12
60.1 14
60.16 15
60.22 15
60.28 8
60.34 12
60.4 17
60.46 18
60.52 9
60.58 10
60.64 13
60.7 16
60.76 17
60.82 15
60.88 14
60.94 11
61 18
61.06 11
61.12 9
61.18 22
61.24 18
61.3 14
61.36 14
61.42 17
61.48 17
61.54 12
61.6 15
61.66 11
61.72 18
61.78 19
61.84 15
61.9 16
61.96 17
62.02 24
62.08 21
62.14 14
62.2 20
62.26 10
62.32 17
62.38 15
62.44 14
62.5 14
62.56 9
62.62 23
62.68 19
62.74 13
62.8 20
62.86 15
62.92 27
62.98 16
63.04 11
63.1 13
63.16 12
63.22 15
63.28 17
63.34 14
63.4 17
63.46 10
63.52 16
63.58 15
63.64 13
63.7 20
63.76 11
63.82 15
63.88 12
63.94 15
64 14
64.06 14
64.12 14
64.18 16
64.24 25
64.3 12
64.36 18
64.42 19
64.48 13
64.54 14
64.6 23
64.66 21
64.72 18
64.78 20
64.84 13
64.9 20
64.96 23
65.02 15
65.08 14
65.14 23
65.2 15
65.26 21
65.32 25
65.38 22
65.44 24
65.5 22
65.56 23
65.62 17
65.68 23
65.74 23
65.8 18
65.86 19
65.92 20
65.98 20
66.04 19
66.1 29
66.16 23
66.22 26
66.28 26
66.34 31
66.4 22
66.46 20
66.52 28
66.58 33
66.64 35
66.7 32
66.76 30
66.82 29
66.88 28
66.94 36
67 39
67.06 31
67.12 28
67.18 37
67.24 39
67.3 37
67.36 43
67.42 30
67.48 32
67.54 44
67.6 43
67.66 33
67.72 40
67.78 32
67.84 52
67.9 47
67.96 47
68.02 52
68.08 64
68.14 57
68.2 67
68.26 69
68.32 61
68.38 66
68.44 57
68.5 73
68.56 90
68.62 82
68.68 76
68.74 93
68.8 96
68.86 112
68.92 158
68.98 319
69.04 834
69.1 1208
69.16 439
69.22 412
69.28 751
69.34 321
69.4 139
69.46 106
69.52 99
69.58 73
69.64 70
69.7 69
69.76 76
69.82 60
69.88 63
69.94 62
70 62
70.06 54
70.12 49
70.18 63
70.24 58
70.3 64
70.36 60
70.42 43
70.48 73
70.54 39
70.6 46
70.66 41
70.72 51
70.78 38
70.84 40
70.9 38
70.96 46
71.02 33
71.08 37
71.14 38
71.2 35
71.26 33
71.32 29
71.38 32
71.44 30
71.5 20
71.56 28
71.62 32
71.68 22
71.74 33
71.8 33
71.86 29
71.92 25
71.98 19
72.04 25
72.1 24
72.16 25
72.22 26
72.28 22
72.34 20
72.4 27
72.46 14
72.52 21
72.58 19
72.64 19
72.7 30
72.76 22
72.82 17
72.88 24
72.94 25
73 22
73.06 11
73.12 18
73.18 14
73.24 12
73.3 16
73.36 21
73.42 9
73.48 13
73.54 15
73.6 22
73.66 14
73.72 14
73.78 18
73.84 19
73.9 8
73.96 13
74.02 18
74.08 13
74.14 11
74.2 17
74.26 10
74.32 9
74.38 14
74.44 12
74.5 16
74.56 11
74.62 13
74.68 13
74.74 8
74.8 11
74.86 13
74.92 18
74.98 12
75.04 13
75.1 5
75.16 22
75.22 9
75.28 24
75.34 14
75.4 16
75.46 9
75.52 11
75.58 9
75.64 14
75.7 15
75.76 17
75.82 9
75.88 15
75.94 9
76 8
76.06 11
76.12 14
76.18 7
76.24 13
76.3 11
76.36 8
76.42 6
76.48 11
76.54 8
76.6 10
76.66 8
76.72 8
76.78 17
76.84 13
76.9 16
76.96 5
77.02 7
77.08 10
77.14 12
77.2 17
77.26 11
77.32 12
77.38 13
77.44 9
77.5 10
77.56 14
77.62 10
77.68 16
77.74 8
77.8 11
77.86 8
77.92 12
77.98 9
78.04 9
78.1 5
78.16 12
78.22 11
78.28 9
78.34 15
78.4 6
78.46 8
78.52 8
78.58 12
78.64 10
78.7 8
78.76 11
78.82 10
78.88 9
78.94 8
79 10
79.06 11
79.12 6
79.18 7
79.24 14
79.3 9
79.36 8
79.42 9
79.48 12
79.54 9
79.6 9
79.66 9
79.72 11
79.78 8
79.84 4
79.9 11
79.96 8
80.02 6
80.08 8
80.14 6
80.2 4
80.26 7
80.32 6
80.38 11
80.44 17
80.5 11
80.56 9
80.62 12
80.68 8
80.74 13
80.8 5
80.86 14
80.92 6
80.98 14
81.04 14
81.1 4
81.16 7
81.22 10
81.28 12
81.34 9
81.4 3
81.46 10
81.52 6
81.58 8
81.64 12
81.7 2
81.76 9
81.82 15
81.88 10
81.94 9
82 10
82.06 10
82.12 10
82.18 11
82.24 6
82.3 5
82.36 9
82.42 8
82.48 7
82.54 6
82.6 8
82.66 6
82.72 10
82.78 6
82.84 8
82.9 6
82.96 14
83.02 6
83.08 15
83.14 7
83.2 12
83.26 9
83.32 12
83.38 7
83.44 8
83.5 10
83.56 5
83.62 7
83.68 5
83.74 16
83.8 7
83.86 9
83.92 5
83.98 8
84.04 10
84.1 10
84.16 4
84.22 11
84.28 5
84.34 14
84.4 7
84.46 4
84.52 9
84.58 9
84.64 10
84.7 6
84.76 7
84.82 5
84.88 13
84.94 6
85 6
85.06 5
85.12 9
85.18 8
85.24 1
85.3 13
85.36 4
85.42 11
85.48 2
85.54 7
85.6 11
85.66 4
85.72 9
85.78 5
85.84 6
85.9 6
85.96 5
86.02 6
86.08 9
86.14 10
86.2 12
86.26 4
86.32 11
86.38 10
86.44 8
86.5 7
86.56 6
86.62 4
86.68 7
86.74 6
86.8 6
86.86 7
86.92 8
86.98 11
87.04 9
87.1 7
87.16 8
87.22 8
87.28 9
87.34 9
87.4 6
87.46 9
87.52 9
87.58 6
87.64 7
87.7 4
87.76 6
87.82 6
87.88 6
87.94 7
88 11
88.06 8
88.12 7
88.18 9
88.24 9
88.3 5
88.36 7
88.42 3
88.48 10
88.54 10
88.6 8
88.66 7
88.72 7
88.78 5
88.84 11
88.9 6
88.96 7
89.02 6
89.08 12
89.14 4
89.2 13
89.26 8
89.32 4
89.38 2
89.44 6
89.5 7
89.56 9
89.62 6
89.68 3
89.74 4
89.8 2
89.86 4
89.92 7
89.98 4
90 7