File: 研究/Sn/Sn_X線/190306/Si_wefer_20190122.TXT
Sample Si_wefer
Comments rapid
Filename C:\WINDMAX\DATA\SHIMANO\XRD20190306\Si_wefer_20190122.raw
Goniometer TTRáV êÖïΩ∫ﬁ∆µ“∞¿(Tsé≤éËìÆ,ADS)
Attachment ïWèÄééóøŒŸ¿ﬁ∞
Monochromater å≈íË”…∏€“∞¿
ScanningMode 2Theta/Theta
ScanningType Continuos Scanning
X-Ray 40kV/300mA
î≠éUΩÿØƒ 2/3Åã
î≠éUècêßå¿ΩÿØƒ 2mm
éUóêΩÿØƒ 2/3Åã
éÛåıΩÿØƒ 0.3mm
±Ø√»∞¿ äJï˙
”…∏€éÛåıΩÿØƒ 0.8mm
Start 10
Stop 90
Step 0.02
10 22
10.06 37
10.12 23
10.18 34
10.24 24
10.3 27
10.36 35
10.42 23
10.48 36
10.54 29
10.6 29
10.66 23
10.72 16
10.78 40
10.84 30
10.9 21
10.96 33
11.02 35
11.08 23
11.14 32
11.2 27
11.26 27
11.32 28
11.38 22
11.44 22
11.5 18
11.56 36
11.62 23
11.68 28
11.74 27
11.8 20
11.86 29
11.92 33
11.98 25
12.04 22
12.1 22
12.16 21
12.22 19
12.28 26
12.34 25
12.4 23
12.46 30
12.52 21
12.58 28
12.64 31
12.7 22
12.76 28
12.82 23
12.88 27
12.94 21
13 20
13.06 20
13.12 25
13.18 27
13.24 25
13.3 23
13.36 23
13.42 21
13.48 22
13.54 25
13.6 20
13.66 20
13.72 29
13.78 21
13.84 31
13.9 24
13.96 27
14.02 21
14.08 24
14.14 17
14.2 34
14.26 26
14.32 25
14.38 25
14.44 17
14.5 20
14.56 21
14.62 29
14.68 26
14.74 27
14.8 16
14.86 29
14.92 20
14.98 20
15.04 25
15.1 23
15.16 18
15.22 20
15.28 16
15.34 24
15.4 19
15.46 24
15.52 13
15.58 18
15.64 27
15.7 24
15.76 17
15.82 30
15.88 21
15.94 17
16 18
16.06 22
16.12 21
16.18 23
16.24 21
16.3 28
16.36 31
16.42 26
16.48 26
16.54 22
16.6 22
16.66 31
16.72 25
16.78 30
16.84 29
16.9 22
16.96 21
17.02 19
17.08 22
17.14 28
17.2 28
17.26 19
17.32 26
17.38 21
17.44 20
17.5 23
17.56 20
17.62 31
17.68 26
17.74 17
17.8 27
17.86 30
17.92 24
17.98 23
18.04 23
18.1 18
18.16 30
18.22 31
18.28 27
18.34 16
18.4 25
18.46 24
18.52 15
18.58 13
18.64 24
18.7 21
18.76 26
18.82 27
18.88 22
18.94 27
19 29
19.06 20
19.12 25
19.18 17
19.24 20
19.3 28
19.36 27
19.42 26
19.48 27
19.54 18
19.6 30
19.66 34
19.72 23
19.78 18
19.84 21
19.9 42
19.96 29
20.02 27
20.08 29
20.14 34
20.2 34
20.26 20
20.32 36
20.38 23
20.44 20
20.5 22
20.56 25
20.62 25
20.68 21
20.74 17
20.8 26
20.86 22
20.92 26
20.98 23
21.04 21
21.1 25
21.16 15
21.22 30
21.28 28
21.34 27
21.4 28
21.46 23
21.52 18
21.58 32
21.64 24
21.7 32
21.76 23
21.82 26
21.88 16
21.94 25
22 36
22.06 31
22.12 36
22.18 37
22.24 31
22.3 40
22.36 28
22.42 17
22.48 28
22.54 34
22.6 37
22.66 21
22.72 30
22.78 38
22.84 18
22.9 22
22.96 31
23.02 27
23.08 24
23.14 31
23.2 34
23.26 39
23.32 37
23.38 24
23.44 18
23.5 29
23.56 24
23.62 24
23.68 35
23.74 30
23.8 37
23.86 33
23.92 19
23.98 33
24.04 20
24.1 31
24.16 27
24.22 31
24.28 38
24.34 29
24.4 29
24.46 24
24.52 21
24.58 27
24.64 25
24.7 34
24.76 23
24.82 26
24.88 34
24.94 22
25 37
25.06 22
25.12 37
25.18 22
25.24 27
25.3 26
25.36 40
25.42 26
25.48 30
25.54 31
25.6 30
25.66 33
25.72 32
25.78 30
25.84 28
25.9 32
25.96 31
26.02 29
26.08 28
26.14 32
26.2 31
26.26 32
26.32 23
26.38 38
26.44 40
26.5 31
26.56 24
26.62 27
26.68 28
26.74 30
26.8 26
26.86 32
26.92 39
26.98 32
27.04 27
27.1 28
27.16 31
27.22 32
27.28 24
27.34 29
27.4 27
27.46 33
27.52 28
27.58 28
27.64 32
27.7 35
27.76 27
27.82 23
27.88 35
27.94 37
28 43
28.06 44
28.12 27
28.18 28
28.24 35
28.3 20
28.36 36
28.42 27
28.48 28
28.54 32
28.6 37
28.66 31
28.72 31
28.78 26
28.84 20
28.9 27
28.96 28
29.02 30
29.08 28
29.14 27
29.2 33
29.26 29
29.32 26
29.38 31
29.44 24
29.5 31
29.56 31
29.62 25
29.68 27
29.74 28
29.8 32
29.86 38
29.92 45
29.98 24
30.04 25
30.1 36
30.16 37
30.22 34
30.28 24
30.34 33
30.4 24
30.46 37
30.52 33
30.58 9
30.64 26
30.7 28
30.76 24
30.82 30
30.88 35
30.94 30
31 22
31.06 28
31.12 23
31.18 25
31.24 21
31.3 29
31.36 24
31.42 23
31.48 21
31.54 26
31.6 21
31.66 31
31.72 25
31.78 24
31.84 19
31.9 21
31.96 29
32.02 20
32.08 27
32.14 22
32.2 26
32.26 22
32.32 19
32.38 22
32.44 23
32.5 22
32.56 19
32.62 16
32.68 22
32.74 20
32.8 24
32.86 27
32.92 18
32.98 22
33.04 34
33.1 20
33.16 20
33.22 25
33.28 21
33.34 27
33.4 15
33.46 15
33.52 19
33.58 28
33.64 13
33.7 19
33.76 20
33.82 25
33.88 17
33.94 21
34 16
34.06 35
34.12 18
34.18 22
34.24 14
34.3 20
34.36 23
34.42 16
34.48 22
34.54 23
34.6 21
34.66 15
34.72 24
34.78 16
34.84 17
34.9 28
34.96 19
35.02 19
35.08 28
35.14 16
35.2 19
35.26 12
35.32 13
35.38 17
35.44 15
35.5 24
35.56 18
35.62 19
35.68 15
35.74 13
35.8 15
35.86 15
35.92 22
35.98 19
36.04 18
36.1 16
36.16 12
36.22 14
36.28 12
36.34 20
36.4 14
36.46 13
36.52 11
36.58 18
36.64 12
36.7 7
36.76 18
36.82 16
36.88 13
36.94 11
37 14
37.06 21
37.12 17
37.18 17
37.24 9
37.3 25
37.36 11
37.42 14
37.48 19
37.54 11
37.6 17
37.66 18
37.72 12
37.78 14
37.84 11
37.9 18
37.96 14
38.02 18
38.08 16
38.14 20
38.2 14
38.26 18
38.32 16
38.38 15
38.44 13
38.5 11
38.56 10
38.62 12
38.68 10
38.74 14
38.8 16
38.86 16
38.92 10
38.98 11
39.04 10
39.1 4
39.16 7
39.22 14
39.28 15
39.34 14
39.4 14
39.46 12
39.52 10
39.58 15
39.64 16
39.7 10
39.76 14
39.82 10
39.88 12
39.94 13
40 10
40.06 11
40.12 11
40.18 10
40.24 15
40.3 14
40.36 15
40.42 12
40.48 8
40.54 15
40.6 15
40.66 11
40.72 15
40.78 5
40.84 10
40.9 10
40.96 15
41.02 9
41.08 14
41.14 14
41.2 21
41.26 11
41.32 12
41.38 13
41.44 11
41.5 7
41.56 9
41.62 13
41.68 10
41.74 6
41.8 12
41.86 9
41.92 17
41.98 9
42.04 6
42.1 16
42.16 9
42.22 15
42.28 9
42.34 15
42.4 15
42.46 4
42.52 13
42.58 11
42.64 16
42.7 9
42.76 6
42.82 10
42.88 15
42.94 11
43 8
43.06 11
43.12 5
43.18 12
43.24 8
43.3 9
43.36 11
43.42 10
43.48 11
43.54 14
43.6 10
43.66 16
43.72 5
43.78 9
43.84 12
43.9 16
43.96 13
44.02 13
44.08 16
44.14 7
44.2 13
44.26 11
44.32 9
44.38 15
44.44 17
44.5 12
44.56 16
44.62 12
44.68 18
44.74 14
44.8 13
44.86 9
44.92 13
44.98 12
45.04 9
45.1 6
45.16 13
45.22 12
45.28 12
45.34 7
45.4 9
45.46 4
45.52 7
45.58 10
45.64 9
45.7 5
45.76 8
45.82 11
45.88 12
45.94 10
46 5
46.06 15
46.12 17
46.18 12
46.24 12
46.3 5
46.36 12
46.42 9
46.48 14
46.54 12
46.6 9
46.66 14
46.72 8
46.78 10
46.84 10
46.9 7
46.96 9
47.02 4
47.08 6
47.14 10
47.2 12
47.26 10
47.32 10
47.38 10
47.44 4
47.5 6
47.56 10
47.62 6
47.68 9
47.74 3
47.8 8
47.86 13
47.92 9
47.98 15
48.04 6
48.1 9
48.16 3
48.22 5
48.28 9
48.34 7
48.4 4
48.46 7
48.52 7
48.58 4
48.64 6
48.7 8
48.76 11
48.82 8
48.88 6
48.94 12
49 10
49.06 10
49.12 4
49.18 7
49.24 12
49.3 5
49.36 9
49.42 5
49.48 8
49.54 9
49.6 8
49.66 5
49.72 7
49.78 5
49.84 3
49.9 13
49.96 8
50.02 8
50.08 6
50.14 4
50.2 10
50.26 7
50.32 7
50.38 10
50.44 7
50.5 8
50.56 10
50.62 14
50.68 9
50.74 4
50.8 4
50.86 8
50.92 9
50.98 6
51.04 7
51.1 6
51.16 5
51.22 5
51.28 9
51.34 11
51.4 7
51.46 12
51.52 8
51.58 7
51.64 8
51.7 7
51.76 7
51.82 8
51.88 3
51.94 3
52 8
52.06 5
52.12 7
52.18 9
52.24 8
52.3 7
52.36 6
52.42 12
52.48 7
52.54 12
52.6 3
52.66 6
52.72 9
52.78 8
52.84 5
52.9 6
52.96 8
53.02 14
53.08 8
53.14 7
53.2 7
53.26 2
53.32 9
53.38 8
53.44 9
53.5 6
53.56 5
53.62 5
53.68 4
53.74 8
53.8 10
53.86 4
53.92 10
53.98 5
54.04 6
54.1 5
54.16 7
54.22 9
54.28 8
54.34 8
54.4 4
54.46 5
54.52 8
54.58 7
54.64 2
54.7 7
54.76 13
54.82 8
54.88 4
54.94 7
55 6
55.06 5
55.12 6
55.18 8
55.24 6
55.3 5
55.36 4
55.42 5
55.48 4
55.54 4
55.6 6
55.66 6
55.72 10
55.78 11
55.84 9
55.9 4
55.96 5
56.02 4
56.08 5
56.14 7
56.2 4
56.26 8
56.32 5
56.38 6
56.44 3
56.5 8
56.56 3
56.62 5
56.68 4
56.74 2
56.8 2
56.86 9
56.92 5
56.98 12
57.04 6
57.1 7
57.16 3
57.22 4
57.28 8
57.34 10
57.4 6
57.46 8
57.52 5
57.58 5
57.64 9
57.7 7
57.76 5
57.82 10
57.88 5
57.94 7
58 6
58.06 8
58.12 4
58.18 3
58.24 5
58.3 6
58.36 3
58.42 6
58.48 4
58.54 2
58.6 5
58.66 11
58.72 5
58.78 8
58.84 4
58.9 2
58.96 8
59.02 6
59.08 5
59.14 5
59.2 13
59.26 6
59.32 7
59.38 4
59.44 6
59.5 6
59.56 8
59.62 7
59.68 8
59.74 9
59.8 5
59.86 4
59.92 10
59.98 2
60.04 11
60.1 6
60.16 7
60.22 6
60.28 3
60.34 7
60.4 3
60.46 6
60.52 9
60.58 4
60.64 8
60.7 4
60.76 5
60.82 5
60.88 5
60.94 6
61 8
61.06 2
61.12 7
61.18 13
61.24 6
61.3 7
61.36 9
61.42 9
61.48 5
61.54 9
61.6 6
61.66 8
61.72 6
61.78 5
61.84 10
61.9 5
61.96 5
62.02 5
62.08 8
62.14 9
62.2 9
62.26 8
62.32 9
62.38 5
62.44 9
62.5 9
62.56 6
62.62 6
62.68 10
62.74 6
62.8 10
62.86 6
62.92 12
62.98 7
63.04 12
63.1 12
63.16 6
63.22 8
63.28 10
63.34 6
63.4 6
63.46 7
63.52 7
63.58 7
63.64 10
63.7 5
63.76 7
63.82 10
63.88 15
63.94 9
64 8
64.06 5
64.12 11
64.18 9
64.24 12
64.3 2
64.36 8
64.42 6
64.48 14
64.54 12
64.6 8
64.66 10
64.72 11
64.78 21
64.84 9
64.9 5
64.96 12
65.02 9
65.08 11
65.14 14
65.2 15
65.26 12
65.32 13
65.38 7
65.44 8
65.5 13
65.56 10
65.62 14
65.68 11
65.74 8
65.8 12
65.86 18
65.92 18
65.98 15
66.04 20
66.1 17
66.16 13
66.22 9
66.28 13
66.34 21
66.4 13
66.46 19
66.52 26
66.58 15
66.64 22
66.7 17
66.76 21
66.82 13
66.88 22
66.94 18
67 24
67.06 22
67.12 23
67.18 20
67.24 27
67.3 17
67.36 25
67.42 21
67.48 28
67.54 34
67.6 21
67.66 28
67.72 38
67.78 37
67.84 38
67.9 39
67.96 35
68.02 35
68.08 43
68.14 44
68.2 35
68.26 37
68.32 36
68.38 50
68.44 37
68.5 55
68.56 47
68.62 52
68.68 49
68.74 36
68.8 43
68.86 75
68.92 46
68.98 69
69.04 63
69.1 64
69.16 70
69.22 44
69.28 63
69.34 51
69.4 48
69.46 33
69.52 50
69.58 43
69.64 53
69.7 51
69.76 47
69.82 48
69.88 35
69.94 59
70 44
70.06 36
70.12 47
70.18 36
70.24 33
70.3 29
70.36 31
70.42 37
70.48 33
70.54 32
70.6 30
70.66 30
70.72 30
70.78 33
70.84 28
70.9 27
70.96 27
71.02 24
71.08 24
71.14 18
71.2 20
71.26 32
71.32 23
71.38 20
71.44 27
71.5 20
71.56 23
71.62 25
71.68 13
71.74 27
71.8 22
71.86 19
71.92 14
71.98 17
72.04 13
72.1 17
72.16 11
72.22 12
72.28 12
72.34 17
72.4 13
72.46 12
72.52 11
72.58 13
72.64 16
72.7 8
72.76 12
72.82 14
72.88 18
72.94 11
73 17
73.06 17
73.12 8
73.18 10
73.24 14
73.3 14
73.36 12
73.42 16
73.48 11
73.54 9
73.6 9
73.66 9
73.72 5
73.78 9
73.84 8
73.9 14
73.96 10
74.02 9
74.08 8
74.14 12
74.2 7
74.26 13
74.32 12
74.38 5
74.44 4
74.5 6
74.56 8
74.62 8
74.68 5
74.74 7
74.8 10
74.86 8
74.92 6
74.98 2
75.04 4
75.1 5
75.16 7
75.22 10
75.28 5
75.34 8
75.4 8
75.46 9
75.52 7
75.58 5
75.64 4
75.7 8
75.76 4
75.82 3
75.88 4
75.94 9
76 7
76.06 2
76.12 3
76.18 7
76.24 4
76.3 4
76.36 4
76.42 4
76.48 4
76.54 5
76.6 7
76.66 4
76.72 8
76.78 5
76.84 5
76.9 5
76.96 3
77.02 7
77.08 6
77.14 4
77.2 3
77.26 6
77.32 5
77.38 10
77.44 9
77.5 7
77.56 5
77.62 2
77.68 6
77.74 2
77.8 2
77.86 7
77.92 5
77.98 5
78.04 3
78.1 7
78.16 5
78.22 4
78.28 7
78.34 5
78.4 4
78.46 6
78.52 8
78.58 4
78.64 6
78.7 4
78.76 8
78.82 3
78.88 7
78.94 6
79 3
79.06 6
79.12 1
79.18 6
79.24 3
79.3 4
79.36 2
79.42 8
79.48 8
79.54 6
79.6 4
79.66 12
79.72 2
79.78 4
79.84 8
79.9 6
79.96 5
80.02 6
80.08 3
80.14 6
80.2 4
80.26 3
80.32 5
80.38 5
80.44 2
80.5 5
80.56 9
80.62 4
80.68 7
80.74 4
80.8 5
80.86 7
80.92 1
80.98 3
81.04 8
81.1 5
81.16 5
81.22 9
81.28 2
81.34 7
81.4 4
81.46 6
81.52 9
81.58 9
81.64 5
81.7 3
81.76 5
81.82 7
81.88 1
81.94 4
82 3
82.06 2
82.12 4
82.18 5
82.24 7
82.3 1
82.36 5
82.42 4
82.48 3
82.54 5
82.6 2
82.66 4
82.72 6
82.78 4
82.84 4
82.9 5
82.96 3
83.02 3
83.08 4
83.14 3
83.2 6
83.26 3
83.32 6
83.38 2
83.44 4
83.5 10
83.56 2
83.62 4
83.68 6
83.74 8
83.8 5
83.86 3
83.92 6
83.98 2
84.04 2
84.1 3
84.16 1
84.22 3
84.28 4
84.34 3
84.4 4
84.46 5
84.52 6
84.58 4
84.64 4
84.7 5
84.76 2
84.82 2
84.88 7
84.94 2
85 2
85.06 3
85.12 3
85.18 1
85.24 3
85.3 7
85.36 4
85.42 2
85.48 2
85.54 7
85.6 3
85.66 2
85.72 2
85.78 1
85.84 3
85.9 5
85.96 4
86.02 2
86.08 1
86.14 4
86.2 3
86.26 6
86.32 1
86.38 2
86.44 4
86.5 4
86.56 5
86.62 1
86.68 7
86.74 6
86.8 5
86.86 5
86.92 4
86.98 3
87.04 3
87.1 5
87.16 6
87.22 1
87.28 2
87.34 4
87.4 1
87.46 1
87.52 5
87.58 5
87.64 8
87.7 3
87.76 4
87.82 5
87.88 2
87.94 1
88 4
88.06 5
88.12 0
88.18 5
88.24 2
88.3 3
88.36 1
88.42 3
88.48 4
88.54 6
88.6 4
88.66 4
88.72 0
88.78 1
88.84 4
88.9 3
88.96 6
89.02 4
89.08 6
89.14 3
89.2 6
89.26 2
89.32 3
89.38 3
89.44 3
89.5 5
89.56 6
89.62 2
89.68 3
89.74 2
89.8 2
89.86 1
89.92 6
89.98 3
90 6