File: 研究/Sn/Sn_X線/190306/SnonSi-No-Kenma-K2SnO3aq_20190122_std2.TXT
Sample SnonSi-å§ñÅÇ»Çµ-SnÇ
Comments medium
Filename C:\WINDMAX\DATA\SHIMANO\XRD20190306\SnonSi-No-Kenma-K2SnO3aq_20190122_std2.raw
Goniometer TTRáV êÖïΩ∫ﬁ∆µ“∞¿(Tsé≤éËìÆ,ADS)
Attachment ïWèÄééóøŒŸ¿ﬁ∞
Monochromater å≈íË”…∏€“∞¿
ScanningMode 2Theta/Theta
ScanningType Continuos Scanning
X-Ray 40kV/300mA
î≠éUΩÿØƒ 2/3Åã
î≠éUècêßå¿ΩÿØƒ 10mm
éUóêΩÿØƒ 2/3Åã
éÛåıΩÿØƒ 0.3mm
±Ø√»∞¿ äJï˙
”…∏€éÛåıΩÿØƒ 0.8mm
Start 10
Stop 50
Step 0.02
10 285
10.04 339
10.08 319
10.12 346
10.16 374
10.2 289
10.24 328
10.28 322
10.32 348
10.36 341
10.4 322
10.44 329
10.48 314
10.52 320
10.56 335
10.6 323
10.64 318
10.68 291
10.72 314
10.76 332
10.8 283
10.84 319
10.88 311
10.92 333
10.96 295
11 312
11.04 335
11.08 339
11.12 314
11.16 304
11.2 350
11.24 312
11.28 307
11.32 283
11.36 314
11.4 310
11.44 271
11.48 298
11.52 306
11.56 331
11.6 344
11.64 321
11.68 284
11.72 341
11.76 294
11.8 272
11.84 321
11.88 327
11.92 299
11.96 304
12 311
12.04 322
12.08 272
12.12 312
12.16 277
12.2 296
12.24 302
12.28 297
12.32 295
12.36 286
12.4 286
12.44 295
12.48 288
12.52 320
12.56 286
12.6 281
12.64 305
12.68 290
12.72 297
12.76 303
12.8 300
12.84 280
12.88 282
12.92 289
12.96 259
13 291
13.04 292
13.08 286
13.12 300
13.16 279
13.2 279
13.24 286
13.28 284
13.32 324
13.36 286
13.4 284
13.44 281
13.48 297
13.52 287
13.56 298
13.6 265
13.64 287
13.68 319
13.72 294
13.76 279
13.8 291
13.84 318
13.88 264
13.92 329
13.96 301
14 261
14.04 307
14.08 298
14.12 334
14.16 276
14.2 305
14.24 336
14.28 266
14.32 298
14.36 314
14.4 306
14.44 289
14.48 326
14.52 317
14.56 285
14.6 283
14.64 326
14.68 301
14.72 267
14.76 347
14.8 311
14.84 313
14.88 301
14.92 294
14.96 285
15 291
15.04 302
15.08 339
15.12 319
15.16 304
15.2 300
15.24 293
15.28 285
15.32 312
15.36 289
15.4 329
15.44 273
15.48 270
15.52 282
15.56 312
15.6 314
15.64 301
15.68 285
15.72 333
15.76 318
15.8 308
15.84 306
15.88 297
15.92 322
15.96 271
16 319
16.04 284
16.08 310
16.12 330
16.16 331
16.2 322
16.24 304
16.28 327
16.32 333
16.36 295
16.4 309
16.44 335
16.48 333
16.52 326
16.56 306
16.6 317
16.64 325
16.68 344
16.72 325
16.76 366
16.8 334
16.84 322
16.88 335
16.92 349
16.96 364
17 341
17.04 298
17.08 344
17.12 332
17.16 348
17.2 324
17.24 356
17.28 324
17.32 316
17.36 330
17.4 337
17.44 319
17.48 310
17.52 349
17.56 326
17.6 330
17.64 325
17.68 359
17.72 343
17.76 326
17.8 348
17.84 309
17.88 335
17.92 308
17.96 332
18 346
18.04 360
18.08 335
18.12 334
18.16 329
18.2 361
18.24 349
18.28 335
18.32 342
18.36 335
18.4 365
18.44 371
18.48 366
18.52 344
18.56 367
18.6 344
18.64 339
18.68 381
18.72 351
18.76 346
18.8 373
18.84 367
18.88 398
18.92 348
18.96 371
19 341
19.04 369
19.08 367
19.12 429
19.16 400
19.2 359
19.24 411
19.28 382
19.32 347
19.36 370
19.4 382
19.44 439
19.48 420
19.52 433
19.56 385
19.6 383
19.64 408
19.68 399
19.72 382
19.76 401
19.8 409
19.84 414
19.88 370
19.92 405
19.96 402
20 397
20.04 377
20.08 389
20.12 443
20.16 408
20.2 381
20.24 417
20.28 427
20.32 400
20.36 434
20.4 429
20.44 418
20.48 393
20.52 408
20.56 430
20.6 435
20.64 449
20.68 438
20.72 443
20.76 440
20.8 447
20.84 479
20.88 455
20.92 469
20.96 452
21 450
21.04 459
21.08 449
21.12 468
21.16 462
21.2 482
21.24 465
21.28 469
21.32 498
21.36 507
21.4 536
21.44 516
21.48 467
21.52 526
21.56 472
21.6 503
21.64 475
21.68 435
21.72 474
21.76 487
21.8 488
21.84 520
21.88 534
21.92 515
21.96 557
22 494
22.04 546
22.08 564
22.12 536
22.16 542
22.2 530
22.24 531
22.28 550
22.32 530
22.36 505
22.4 549
22.44 584
22.48 543
22.52 534
22.56 545
22.6 526
22.64 567
22.68 557
22.72 574
22.76 515
22.8 562
22.84 535
22.88 525
22.92 528
22.96 527
23 568
23.04 542
23.08 531
23.12 583
23.16 562
23.2 521
23.24 538
23.28 547
23.32 517
23.36 516
23.4 531
23.44 530
23.48 546
23.52 477
23.56 530
23.6 538
23.64 524
23.68 543
23.72 534
23.76 509
23.8 534
23.84 514
23.88 532
23.92 532
23.96 557
24 555
24.04 532
24.08 501
24.12 551
24.16 520
24.2 515
24.24 579
24.28 502
24.32 563
24.36 575
24.4 519
24.44 509
24.48 550
24.52 491
24.56 545
24.6 496
24.64 525
24.68 502
24.72 548
24.76 521
24.8 582
24.84 552
24.88 560
24.92 525
24.96 558
25 533
25.04 522
25.08 527
25.12 588
25.16 505
25.2 538
25.24 546
25.28 554
25.32 589
25.36 547
25.4 517
25.44 518
25.48 503
25.52 531
25.56 541
25.6 528
25.64 540
25.68 551
25.72 512
25.76 532
25.8 526
25.84 532
25.88 495
25.92 520
25.96 487
26 553
26.04 528
26.08 548
26.12 505
26.16 509
26.2 522
26.24 538
26.28 545
26.32 504
26.36 544
26.4 498
26.44 577
26.48 530
26.52 539
26.56 534
26.6 551
26.64 539
26.68 542
26.72 560
26.76 522
26.8 498
26.84 531
26.88 563
26.92 531
26.96 549
27 499
27.04 536
27.08 514
27.12 510
27.16 531
27.2 488
27.24 528
27.28 531
27.32 571
27.36 500
27.4 538
27.44 511
27.48 515
27.52 507
27.56 504
27.6 544
27.64 570
27.68 546
27.72 560
27.76 561
27.8 499
27.84 498
27.88 505
27.92 530
27.96 510
28 534
28.04 493
28.08 504
28.12 546
28.16 529
28.2 519
28.24 511
28.28 506
28.32 502
28.36 513
28.4 518
28.44 476
28.48 501
28.52 515
28.56 519
28.6 488
28.64 471
28.68 458
28.72 494
28.76 527
28.8 517
28.84 517
28.88 482
28.92 479
28.96 484
29 531
29.04 498
29.08 502
29.12 509
29.16 494
29.2 548
29.24 462
29.28 481
29.32 478
29.36 463
29.4 477
29.44 489
29.48 499
29.52 490
29.56 448
29.6 518
29.64 487
29.68 515
29.72 490
29.76 505
29.8 480
29.84 493
29.88 491
29.92 466
29.96 486
30 466
30.04 445
30.08 452
30.12 500
30.16 460
30.2 465
30.24 478
30.28 437
30.32 462
30.36 458
30.4 445
30.44 480
30.48 441
30.52 501
30.56 464
30.6 495
30.64 463
30.68 442
30.72 467
30.76 429
30.8 428
30.84 413
30.88 429
30.92 451
30.96 463
31 446
31.04 434
31.08 447
31.12 415
31.16 448
31.2 426
31.24 460
31.28 439
31.32 402
31.36 412
31.4 419
31.44 406
31.48 437
31.52 446
31.56 434
31.6 432
31.64 436
31.68 402
31.72 394
31.76 416
31.8 412
31.84 431
31.88 408
31.92 446
31.96 389
32 444
32.04 378
32.08 437
32.12 402
32.16 390
32.2 386
32.24 425
32.28 398
32.32 379
32.36 396
32.4 390
32.44 415
32.48 415
32.52 432
32.56 391
32.6 386
32.64 367
32.68 359
32.72 409
32.76 381
32.8 416
32.84 347
32.88 372
32.92 374
32.96 362
33 365
33.04 374
33.08 386
33.12 380
33.16 319
33.2 360
33.24 355
33.28 346
33.32 395
33.36 399
33.4 363
33.44 338
33.48 371
33.52 359
33.56 333
33.6 352
33.64 338
33.68 324
33.72 324
33.76 329
33.8 335
33.84 357
33.88 330
33.92 359
33.96 342
34 366
34.04 340
34.08 329
34.12 352
34.16 346
34.2 325
34.24 324
34.28 318
34.32 329
34.36 320
34.4 353
34.44 332
34.48 338
34.52 309
34.56 282
34.6 318
34.64 336
34.68 290
34.72 343
34.76 297
34.8 317
34.84 302
34.88 284
34.92 327
34.96 349
35 327
35.04 308
35.08 333
35.12 302
35.16 312
35.2 305
35.24 336
35.28 298
35.32 306
35.36 308
35.4 301
35.44 341
35.48 271
35.52 293
35.56 259
35.6 288
35.64 282
35.68 293
35.72 302
35.76 283
35.8 271
35.84 291
35.88 298
35.92 280
35.96 254
36 293
36.04 280
36.08 265
36.12 296
36.16 288
36.2 280
36.24 297
36.28 274
36.32 276
36.36 287
36.4 282
36.44 260
36.48 255
36.52 288
36.56 260
36.6 290
36.64 248
36.68 281
36.72 277
36.76 271
36.8 259
36.84 275
36.88 249
36.92 263
36.96 283
37 267
37.04 239
37.08 252
37.12 243
37.16 249
37.2 224
37.24 256
37.28 260
37.32 248
37.36 253
37.4 275
37.44 281
37.48 217
37.52 222
37.56 259
37.6 266
37.64 241
37.68 248
37.72 233
37.76 231
37.8 253
37.84 268
37.88 239
37.92 244
37.96 233
38 233
38.04 233
38.08 246
38.12 226
38.16 238
38.2 225
38.24 248
38.28 217
38.32 249
38.36 234
38.4 223
38.44 226
38.48 210
38.52 239
38.56 247
38.6 241
38.64 219
38.68 204
38.72 225
38.76 226
38.8 222
38.84 213
38.88 265
38.92 228
38.96 221
39 251
39.04 224
39.08 222
39.12 228
39.16 262
39.2 237
39.24 252
39.28 244
39.32 213
39.36 250
39.4 231
39.44 204
39.48 238
39.52 228
39.56 230
39.6 234
39.64 215
39.68 243
39.72 219
39.76 251
39.8 231
39.84 209
39.88 243
39.92 218
39.96 215
40 227
40.04 219
40.08 227
40.12 226
40.16 233
40.2 251
40.24 229
40.28 218
40.32 225
40.36 222
40.4 221
40.44 234
40.48 208
40.52 218
40.56 206
40.6 242
40.64 233
40.68 218
40.72 224
40.76 233
40.8 205
40.84 232
40.88 250
40.92 210
40.96 246
41 244
41.04 237
41.08 225
41.12 254
41.16 220
41.2 234
41.24 212
41.28 232
41.32 237
41.36 215
41.4 217
41.44 214
41.48 222
41.52 229
41.56 194
41.6 221
41.64 214
41.68 213
41.72 216
41.76 242
41.8 210
41.84 205
41.88 177
41.92 227
41.96 208
42 208
42.04 223
42.08 198
42.12 230
42.16 251
42.2 196
42.24 213
42.28 228
42.32 221
42.36 232
42.4 216
42.44 223
42.48 218
42.52 194
42.56 218
42.6 222
42.64 240
42.68 215
42.72 214
42.76 227
42.8 227
42.84 242
42.88 226
42.92 193
42.96 217
43 259
43.04 242
43.08 238
43.12 226
43.16 197
43.2 205
43.24 198
43.28 186
43.32 207
43.36 200
43.4 219
43.44 214
43.48 227
43.52 212
43.56 209
43.6 214
43.64 235
43.68 205
43.72 194
43.76 227
43.8 212
43.84 232
43.88 215
43.92 225
43.96 220
44 209
44.04 225
44.08 231
44.12 231
44.16 221
44.2 231
44.24 208
44.28 206
44.32 239
44.36 238
44.4 198
44.44 198
44.48 244
44.52 227
44.56 218
44.6 204
44.64 214
44.68 202
44.72 208
44.76 195
44.8 221
44.84 209
44.88 194
44.92 192
44.96 195
45 191
45.04 202
45.08 220
45.12 202
45.16 220
45.2 181
45.24 200
45.28 207
45.32 217
45.36 198
45.4 228
45.44 195
45.48 186
45.52 200
45.56 203
45.6 195
45.64 188
45.68 217
45.72 215
45.76 188
45.8 176
45.84 219
45.88 219
45.92 205
45.96 181
46 180
46.04 213
46.08 250
46.12 194
46.16 206
46.2 213
46.24 209
46.28 194
46.32 229
46.36 169
46.4 217
46.44 210
46.48 199
46.52 197
46.56 181
46.6 207
46.64 205
46.68 191
46.72 188
46.76 178
46.8 199
46.84 175
46.88 174
46.92 176
46.96 199
47 182
47.04 181
47.08 199
47.12 200
47.16 187
47.2 187
47.24 188
47.28 210
47.32 190
47.36 189
47.4 203
47.44 177
47.48 193
47.52 188
47.56 188
47.6 189
47.64 178
47.68 171
47.72 180
47.76 188
47.8 196
47.84 203
47.88 168
47.92 163
47.96 182
48 172
48.04 185
48.08 171
48.12 184
48.16 173
48.2 191
48.24 174
48.28 215
48.32 161
48.36 181
48.4 205
48.44 193
48.48 184
48.52 194
48.56 170
48.6 160
48.64 157
48.68 200
48.72 172
48.76 174
48.8 176
48.84 199
48.88 193
48.92 157
48.96 173
49 158
49.04 167
49.08 183
49.12 179
49.16 197
49.2 182
49.24 186
49.28 174
49.32 172
49.36 165
49.4 191
49.44 178
49.48 199
49.52 159
49.56 183
49.6 182
49.64 191
49.68 170
49.72 198
49.76 199
49.8 192
49.84 161
49.88 182
49.92 166
49.96 173
50 206