File: 研究/Sn/Sn_X線/190306/SnonSi_No-Kenma_K2SnO3aq_20190122.TXT
Sample SnonSi_å§ñÅÇ»Çµ_SnÇ
Comments rapid
Filename C:\WINDMAX\DATA\SHIMANO\XRD20190306\SnonSi_No-Kenma_K2SnO3aq_20190122.raw
Goniometer TTRáV êÖïΩ∫ﬁ∆µ“∞¿(Tsé≤éËìÆ,ADS)
Attachment ïWèÄééóøŒŸ¿ﬁ∞
Monochromater å≈íË”…∏€“∞¿
ScanningMode 2Theta/Theta
ScanningType Continuos Scanning
X-Ray 40kV/300mA
î≠éUΩÿØƒ 2/3Åã
î≠éUècêßå¿ΩÿØƒ 2mm
éUóêΩÿØƒ 2/3Åã
éÛåıΩÿØƒ 0.3mm
±Ø√»∞¿ äJï˙
”…∏€éÛåıΩÿØƒ 0.8mm
Start 10
Stop 90
Step 0.02
10 24
10.06 29
10.12 32
10.18 42
10.24 28
10.3 40
10.36 41
10.42 33
10.48 28
10.54 43
10.6 37
10.66 39
10.72 32
10.78 41
10.84 31
10.9 39
10.96 35
11.02 23
11.08 28
11.14 29
11.2 24
11.26 21
11.32 27
11.38 36
11.44 28
11.5 32
11.56 24
11.62 27
11.68 28
11.74 29
11.8 35
11.86 28
11.92 38
11.98 36
12.04 48
12.1 27
12.16 32
12.22 27
12.28 21
12.34 36
12.4 33
12.46 24
12.52 31
12.58 32
12.64 33
12.7 25
12.76 26
12.82 24
12.88 38
12.94 31
13 31
13.06 32
13.12 32
13.18 25
13.24 37
13.3 23
13.36 24
13.42 36
13.48 30
13.54 27
13.6 31
13.66 34
13.72 28
13.78 27
13.84 39
13.9 34
13.96 36
14.02 41
14.08 26
14.14 41
14.2 33
14.26 23
14.32 35
14.38 33
14.44 24
14.5 34
14.56 27
14.62 28
14.68 33
14.74 31
14.8 32
14.86 39
14.92 37
14.98 27
15.04 29
15.1 24
15.16 47
15.22 36
15.28 36
15.34 36
15.4 39
15.46 25
15.52 42
15.58 29
15.64 29
15.7 27
15.76 32
15.82 30
15.88 29
15.94 36
16 36
16.06 34
16.12 34
16.18 35
16.24 38
16.3 33
16.36 36
16.42 36
16.48 37
16.54 32
16.6 31
16.66 28
16.72 36
16.78 34
16.84 31
16.9 41
16.96 39
17.02 34
17.08 37
17.14 34
17.2 35
17.26 40
17.32 39
17.38 34
17.44 37
17.5 36
17.56 44
17.62 32
17.68 39
17.74 29
17.8 39
17.86 38
17.92 25
17.98 29
18.04 44
18.1 30
18.16 26
18.22 38
18.28 42
18.34 34
18.4 46
18.46 31
18.52 35
18.58 39
18.64 31
18.7 39
18.76 35
18.82 33
18.88 29
18.94 25
19 45
19.06 39
19.12 40
19.18 37
19.24 49
19.3 34
19.36 35
19.42 49
19.48 32
19.54 45
19.6 44
19.66 33
19.72 46
19.78 35
19.84 30
19.9 41
19.96 44
20.02 52
20.08 49
20.14 32
20.2 36
20.26 35
20.32 38
20.38 33
20.44 39
20.5 44
20.56 45
20.62 28
20.68 51
20.74 38
20.8 44
20.86 38
20.92 36
20.98 45
21.04 51
21.1 46
21.16 37
21.22 48
21.28 48
21.34 49
21.4 54
21.46 39
21.52 43
21.58 56
21.64 65
21.7 36
21.76 56
21.82 45
21.88 53
21.94 61
22 51
22.06 54
22.12 60
22.18 54
22.24 47
22.3 46
22.36 64
22.42 57
22.48 44
22.54 56
22.6 63
22.66 55
22.72 57
22.78 54
22.84 54
22.9 59
22.96 53
23.02 41
23.08 46
23.14 43
23.2 39
23.26 48
23.32 50
23.38 56
23.44 38
23.5 48
23.56 59
23.62 44
23.68 43
23.74 38
23.8 33
23.86 48
23.92 51
23.98 29
24.04 56
24.1 45
24.16 37
24.22 42
24.28 57
24.34 46
24.4 35
24.46 41
24.52 41
24.58 46
24.64 40
24.7 36
24.76 49
24.82 44
24.88 48
24.94 37
25 38
25.06 39
25.12 37
25.18 39
25.24 54
25.3 47
25.36 43
25.42 41
25.48 29
25.54 34
25.6 40
25.66 31
25.72 38
25.78 47
25.84 44
25.9 40
25.96 38
26.02 52
26.08 38
26.14 31
26.2 45
26.26 47
26.32 45
26.38 40
26.44 44
26.5 34
26.56 41
26.62 45
26.68 31
26.74 41
26.8 43
26.86 56
26.92 46
26.98 40
27.04 37
27.1 38
27.16 35
27.22 52
27.28 50
27.34 55
27.4 46
27.46 36
27.52 40
27.58 41
27.64 48
27.7 34
27.76 39
27.82 43
27.88 44
27.94 39
28 42
28.06 39
28.12 45
28.18 49
28.24 35
28.3 32
28.36 45
28.42 40
28.48 36
28.54 49
28.6 47
28.66 49
28.72 35
28.78 51
28.84 40
28.9 47
28.96 54
29.02 40
29.08 44
29.14 49
29.2 33
29.26 44
29.32 46
29.38 49
29.44 45
29.5 47
29.56 49
29.62 43
29.68 37
29.74 37
29.8 35
29.86 34
29.92 33
29.98 41
30.04 46
30.1 42
30.16 32
30.22 50
30.28 42
30.34 37
30.4 35
30.46 48
30.52 45
30.58 46
30.64 49
30.7 37
30.76 37
30.82 45
30.88 44
30.94 38
31 34
31.06 47
31.12 48
31.18 34
31.24 33
31.3 31
31.36 37
31.42 43
31.48 32
31.54 36
31.6 38
31.66 43
31.72 34
31.78 39
31.84 38
31.9 41
31.96 43
32.02 41
32.08 33
32.14 31
32.2 35
32.26 41
32.32 36
32.38 50
32.44 25
32.5 44
32.56 41
32.62 45
32.68 32
32.74 41
32.8 43
32.86 29
32.92 39
32.98 39
33.04 50
33.1 40
33.16 46
33.22 29
33.28 39
33.34 39
33.4 32
33.46 45
33.52 36
33.58 31
33.64 41
33.7 49
33.76 48
33.82 37
33.88 41
33.94 33
34 31
34.06 29
34.12 46
34.18 35
34.24 34
34.3 51
34.36 43
34.42 35
34.48 30
34.54 29
34.6 41
34.66 31
34.72 38
34.78 29
34.84 39
34.9 34
34.96 40
35.02 27
35.08 38
35.14 41
35.2 27
35.26 37
35.32 24
35.38 22
35.44 30
35.5 27
35.56 21
35.62 43
35.68 43
35.74 28
35.8 24
35.86 37
35.92 29
35.98 28
36.04 27
36.1 30
36.16 29
36.22 28
36.28 35
36.34 23
36.4 20
36.46 28
36.52 31
36.58 37
36.64 32
36.7 21
36.76 25
36.82 24
36.88 29
36.94 19
37 25
37.06 24
37.12 37
37.18 26
37.24 31
37.3 23
37.36 24
37.42 30
37.48 24
37.54 30
37.6 28
37.66 27
37.72 20
37.78 26
37.84 22
37.9 22
37.96 27
38.02 23
38.08 24
38.14 13
38.2 26
38.26 23
38.32 27
38.38 30
38.44 30
38.5 23
38.56 27
38.62 24
38.68 32
38.74 29
38.8 17
38.86 24
38.92 25
38.98 22
39.04 28
39.1 31
39.16 22
39.22 25
39.28 26
39.34 29
39.4 23
39.46 18
39.52 20
39.58 19
39.64 31
39.7 20
39.76 34
39.82 26
39.88 30
39.94 19
40 28
40.06 24
40.12 29
40.18 18
40.24 26
40.3 27
40.36 31
40.42 25
40.48 28
40.54 26
40.6 23
40.66 30
40.72 24
40.78 24
40.84 29
40.9 21
40.96 21
41.02 32
41.08 31
41.14 21
41.2 29
41.26 26
41.32 19
41.38 15
41.44 21
41.5 24
41.56 28
41.62 27
41.68 33
41.74 29
41.8 18
41.86 25
41.92 25
41.98 25
42.04 19
42.1 22
42.16 26
42.22 18
42.28 20
42.34 22
42.4 26
42.46 25
42.52 21
42.58 7
42.64 40
42.7 21
42.76 25
42.82 12
42.88 22
42.94 26
43 15
43.06 19
43.12 27
43.18 27
43.24 18
43.3 19
43.36 33
43.42 29
43.48 24
43.54 24
43.6 25
43.66 26
43.72 20
43.78 23
43.84 24
43.9 25
43.96 24
44.02 25
44.08 20
44.14 33
44.2 28
44.26 13
44.32 22
44.38 17
44.44 16
44.5 27
44.56 28
44.62 16
44.68 18
44.74 16
44.8 26
44.86 16
44.92 23
44.98 22
45.04 20
45.1 17
45.16 27
45.22 20
45.28 20
45.34 24
45.4 33
45.46 24
45.52 15
45.58 23
45.64 23
45.7 14
45.76 18
45.82 22
45.88 23
45.94 27
46 31
46.06 20
46.12 22
46.18 17
46.24 16
46.3 24
46.36 25
46.42 20
46.48 21
46.54 32
46.6 29
46.66 22
46.72 16
46.78 14
46.84 28
46.9 24
46.96 28
47.02 13
47.08 30
47.14 24
47.2 22
47.26 21
47.32 24
47.38 26
47.44 17
47.5 17
47.56 29
47.62 21
47.68 18
47.74 20
47.8 25
47.86 31
47.92 26
47.98 24
48.04 25
48.1 19
48.16 20
48.22 25
48.28 22
48.34 18
48.4 18
48.46 26
48.52 21
48.58 22
48.64 23
48.7 18
48.76 28
48.82 39
48.88 20
48.94 19
49 14
49.06 27
49.12 18
49.18 18
49.24 18
49.3 24
49.36 21
49.42 17
49.48 21
49.54 27
49.6 27
49.66 15
49.72 14
49.78 17
49.84 24
49.9 15
49.96 18
50.02 24
50.08 20
50.14 22
50.2 18
50.26 14
50.32 15
50.38 16
50.44 27
50.5 16
50.56 10
50.62 24
50.68 22
50.74 18
50.8 24
50.86 15
50.92 23
50.98 27
51.04 19
51.1 22
51.16 17
51.22 16
51.28 12
51.34 11
51.4 18
51.46 19
51.52 25
51.58 19
51.64 27
51.7 20
51.76 21
51.82 17
51.88 26
51.94 12
52 22
52.06 17
52.12 16
52.18 19
52.24 23
52.3 21
52.36 31
52.42 22
52.48 19
52.54 22
52.6 20
52.66 16
52.72 22
52.78 16
52.84 26
52.9 17
52.96 20
53.02 15
53.08 24
53.14 9
53.2 24
53.26 26
53.32 19
53.38 19
53.44 22
53.5 23
53.56 18
53.62 23
53.68 18
53.74 20
53.8 22
53.86 21
53.92 22
53.98 21
54.04 17
54.1 14
54.16 13
54.22 19
54.28 17
54.34 17
54.4 25
54.46 22
54.52 18
54.58 23
54.64 23
54.7 25
54.76 21
54.82 23
54.88 22
54.94 20
55 23
55.06 21
55.12 18
55.18 20
55.24 22
55.3 19
55.36 17
55.42 20
55.48 22
55.54 21
55.6 23
55.66 23
55.72 27
55.78 10
55.84 20
55.9 28
55.96 13
56.02 11
56.08 13
56.14 25
56.2 21
56.26 24
56.32 19
56.38 14
56.44 17
56.5 30
56.56 26
56.62 18
56.68 17
56.74 15
56.8 20
56.86 16
56.92 13
56.98 17
57.04 14
57.1 18
57.16 18
57.22 11
57.28 15
57.34 15
57.4 10
57.46 19
57.52 13
57.58 16
57.64 25
57.7 12
57.76 28
57.82 18
57.88 24
57.94 17
58 17
58.06 23
58.12 17
58.18 20
58.24 22
58.3 15
58.36 24
58.42 16
58.48 16
58.54 20
58.6 13
58.66 25
58.72 20
58.78 21
58.84 12
58.9 26
58.96 20
59.02 16
59.08 15
59.14 22
59.2 12
59.26 24
59.32 18
59.38 24
59.44 19
59.5 23
59.56 21
59.62 10
59.68 13
59.74 17
59.8 21
59.86 12
59.92 14
59.98 22
60.04 13
60.1 18
60.16 22
60.22 21
60.28 18
60.34 24
60.4 12
60.46 22
60.52 24
60.58 21
60.64 21
60.7 22
60.76 17
60.82 35
60.88 18
60.94 19
61 20
61.06 13
61.12 23
61.18 19
61.24 12
61.3 22
61.36 17
61.42 21
61.48 18
61.54 19
61.6 25
61.66 30
61.72 12
61.78 21
61.84 21
61.9 22
61.96 16
62.02 18
62.08 17
62.14 18
62.2 18
62.26 14
62.32 21
62.38 19
62.44 26
62.5 18
62.56 20
62.62 13
62.68 16
62.74 16
62.8 24
62.86 20
62.92 20
62.98 11
63.04 19
63.1 21
63.16 19
63.22 24
63.28 23
63.34 13
63.4 22
63.46 18
63.52 23
63.58 26
63.64 15
63.7 21
63.76 14
63.82 13
63.88 17
63.94 22
64 9
64.06 27
64.12 17
64.18 16
64.24 12
64.3 18
64.36 18
64.42 21
64.48 28
64.54 16
64.6 22
64.66 18
64.72 22
64.78 26
64.84 26
64.9 19
64.96 24
65.02 17
65.08 16
65.14 18
65.2 25
65.26 24
65.32 24
65.38 31
65.44 17
65.5 20
65.56 22
65.62 25
65.68 23
65.74 19
65.8 31
65.86 29
65.92 28
65.98 22
66.04 20
66.1 23
66.16 19
66.22 26
66.28 25
66.34 36
66.4 12
66.46 25
66.52 23
66.58 23
66.64 25
66.7 26
66.76 29
66.82 32
66.88 20
66.94 25
67 29
67.06 34
67.12 23
67.18 35
67.24 40
67.3 46
67.36 46
67.42 50
67.48 49
67.54 46
67.6 61
67.66 48
67.72 80
67.78 58
67.84 88
67.9 99
67.96 123
68.02 132
68.08 154
68.14 164
68.2 216
68.26 247
68.32 283
68.38 338
68.44 382
68.5 434
68.56 558
68.62 795
68.68 1481
68.74 1939
68.8 1989
68.86 2742
68.92 7682
68.98 18315
69.04 0
69.1 0
69.16 17816
69.22 0
69.28 0
69.34 12777
69.4 4206
69.46 2368
69.52 1812
69.58 1360
69.64 1058
69.7 856
69.76 751
69.82 622
69.88 566
69.94 514
70 450
70.06 438
70.12 395
70.18 384
70.24 340
70.3 346
70.36 306
70.42 305
70.48 263
70.54 250
70.6 244
70.66 241
70.72 187
70.78 166
70.84 173
70.9 145
70.96 136
71.02 144
71.08 130
71.14 97
71.2 106
71.26 83
71.32 86
71.38 79
71.44 72
71.5 55
71.56 52
71.62 60
71.68 45
71.74 49
71.8 54
71.86 41
71.92 38
71.98 43
72.04 34
72.1 28
72.16 28
72.22 29
72.28 31
72.34 29
72.4 22
72.46 21
72.52 42
72.58 24
72.64 20
72.7 26
72.76 18
72.82 22
72.88 21
72.94 31
73 7
73.06 17
73.12 18
73.18 16
73.24 12
73.3 16
73.36 22
73.42 19
73.48 17
73.54 25
73.6 14
73.66 16
73.72 20
73.78 21
73.84 22
73.9 14
73.96 16
74.02 18
74.08 12
74.14 10
74.2 19
74.26 16
74.32 17
74.38 9
74.44 9
74.5 14
74.56 11
74.62 12
74.68 17
74.74 24
74.8 11
74.86 15
74.92 11
74.98 16
75.04 16
75.1 18
75.16 11
75.22 18
75.28 16
75.34 14
75.4 16
75.46 16
75.52 16
75.58 18
75.64 18
75.7 14
75.76 11
75.82 13
75.88 11
75.94 12
76 17
76.06 10
76.12 10
76.18 18
76.24 15
76.3 16
76.36 19
76.42 15
76.48 21
76.54 16
76.6 10
76.66 17
76.72 7
76.78 13
76.84 11
76.9 14
76.96 12
77.02 8
77.08 13
77.14 13
77.2 16
77.26 18
77.32 7
77.38 14
77.44 12
77.5 18
77.56 16
77.62 10
77.68 12
77.74 12
77.8 9
77.86 9
77.92 6
77.98 22
78.04 17
78.1 13
78.16 10
78.22 14
78.28 12
78.34 14
78.4 14
78.46 12
78.52 11
78.58 13
78.64 11
78.7 9
78.76 11
78.82 13
78.88 8
78.94 13
79 11
79.06 10
79.12 13
79.18 10
79.24 14
79.3 6
79.36 9
79.42 13
79.48 5
79.54 10
79.6 12
79.66 11
79.72 16
79.78 7
79.84 14
79.9 15
79.96 12
80.02 10
80.08 13
80.14 16
80.2 13
80.26 13
80.32 8
80.38 11
80.44 15
80.5 13
80.56 14
80.62 12
80.68 18
80.74 11
80.8 16
80.86 14
80.92 11
80.98 15
81.04 9
81.1 11
81.16 8
81.22 8
81.28 12
81.34 12
81.4 7
81.46 9
81.52 11
81.58 4
81.64 11
81.7 16
81.76 12
81.82 10
81.88 18
81.94 10
82 6
82.06 13
82.12 16
82.18 10
82.24 12
82.3 12
82.36 17
82.42 12
82.48 10
82.54 7
82.6 8
82.66 9
82.72 13
82.78 16
82.84 9
82.9 15
82.96 11
83.02 11
83.08 8
83.14 10
83.2 7
83.26 12
83.32 17
83.38 16
83.44 8
83.5 10
83.56 16
83.62 9
83.68 8
83.74 13
83.8 9
83.86 11
83.92 8
83.98 8
84.04 10
84.1 6
84.16 7
84.22 10
84.28 14
84.34 7
84.4 13
84.46 7
84.52 5
84.58 11
84.64 7
84.7 16
84.76 15
84.82 5
84.88 9
84.94 12
85 1
85.06 16
85.12 9
85.18 8
85.24 12
85.3 16
85.36 6
85.42 11
85.48 11
85.54 14
85.6 6
85.66 5
85.72 7
85.78 9
85.84 10
85.9 8
85.96 9
86.02 7
86.08 6
86.14 8
86.2 11
86.26 13
86.32 8
86.38 8
86.44 10
86.5 9
86.56 8
86.62 8
86.68 4
86.74 7
86.8 12
86.86 7
86.92 11
86.98 9
87.04 14
87.1 8
87.16 9
87.22 9
87.28 6
87.34 3
87.4 12
87.46 8
87.52 8
87.58 11
87.64 9
87.7 9
87.76 4
87.82 15
87.88 11
87.94 7
88 5
88.06 17
88.12 7
88.18 10
88.24 7
88.3 9
88.36 10
88.42 4
88.48 13
88.54 8
88.6 8
88.66 5
88.72 6
88.78 8
88.84 6
88.9 8
88.96 11
89.02 6
89.08 9
89.14 10
89.2 10
89.26 6
89.32 9
89.38 3
89.44 10
89.5 9
89.56 6
89.62 12
89.68 10
89.74 5
89.8 9
89.86 15
89.92 7
89.98 9
90 8