File: 研究/Sn/Sn_X線/190306/SnonGe-Kenma#2000-K2SnO3aq_20190122_mid.TXT
Sample SnonGe-å§ñÅÇ†ÇË-SnÇ
Comments medium
Filename C:\WINDMAX\DATA\SHIMANO\XRD20190306\SnonGe-Kenma#2000-K2SnO3aq_20190122_mid.raw
Goniometer TTRáV êÖïΩ∫ﬁ∆µ“∞¿(Tsé≤éËìÆ,ADS)
Attachment ïWèÄééóøŒŸ¿ﬁ∞
Monochromater å≈íË”…∏€“∞¿
ScanningMode 2Theta/Theta
ScanningType Continuos Scanning
X-Ray 40kV/300mA
î≠éUΩÿØƒ 2/3Åã
î≠éUècêßå¿ΩÿØƒ 10mm
éUóêΩÿØƒ 2/3Åã
éÛåıΩÿØƒ 0.3mm
±Ø√»∞¿ äJï˙
”…∏€éÛåıΩÿØƒ 0.8mm
Start 10
Stop 90
Step 0.02
10 138
10.06 112
10.12 129
10.18 126
10.24 137
10.3 122
10.36 126
10.42 133
10.48 142
10.54 129
10.6 129
10.66 117
10.72 127
10.78 121
10.84 126
10.9 122
10.96 135
11.02 147
11.08 118
11.14 120
11.2 128
11.26 127
11.32 130
11.38 131
11.44 140
11.5 134
11.56 125
11.62 117
11.68 109
11.74 141
11.8 114
11.86 122
11.92 119
11.98 134
12.04 132
12.1 123
12.16 122
12.22 125
12.28 126
12.34 133
12.4 115
12.46 128
12.52 116
12.58 133
12.64 134
12.7 126
12.76 136
12.82 128
12.88 122
12.94 127
13 101
13.06 106
13.12 118
13.18 114
13.24 122
13.3 116
13.36 120
13.42 142
13.48 119
13.54 130
13.6 111
13.66 105
13.72 120
13.78 128
13.84 143
13.9 126
13.96 122
14.02 113
14.08 129
14.14 117
14.2 147
14.26 117
14.32 106
14.38 128
14.44 146
14.5 131
14.56 125
14.62 123
14.68 151
14.74 126
14.8 116
14.86 116
14.92 131
14.98 123
15.04 139
15.1 140
15.16 122
15.22 145
15.28 140
15.34 136
15.4 125
15.46 113
15.52 140
15.58 135
15.64 122
15.7 119
15.76 143
15.82 123
15.88 114
15.94 129
16 144
16.06 126
16.12 129
16.18 145
16.24 112
16.3 124
16.36 126
16.42 136
16.48 131
16.54 149
16.6 133
16.66 139
16.72 137
16.78 115
16.84 121
16.9 158
16.96 142
17.02 150
17.08 129
17.14 122
17.2 147
17.26 139
17.32 121
17.38 119
17.44 116
17.5 128
17.56 125
17.62 135
17.68 143
17.74 137
17.8 132
17.86 147
17.92 119
17.98 145
18.04 141
18.1 134
18.16 140
18.22 131
18.28 158
18.34 136
18.4 118
18.46 156
18.52 152
18.58 154
18.64 127
18.7 159
18.76 159
18.82 147
18.88 155
18.94 136
19 155
19.06 146
19.12 137
19.18 154
19.24 160
19.3 133
19.36 154
19.42 156
19.48 173
19.54 170
19.6 180
19.66 174
19.72 149
19.78 170
19.84 174
19.9 192
19.96 182
20.02 170
20.08 131
20.14 172
20.2 182
20.26 148
20.32 180
20.38 172
20.44 159
20.5 189
20.56 163
20.62 178
20.68 189
20.74 180
20.8 180
20.86 198
20.92 188
20.98 207
21.04 172
21.1 202
21.16 193
21.22 216
21.28 187
21.34 207
21.4 201
21.46 228
21.52 228
21.58 213
21.64 201
21.7 203
21.76 192
21.82 221
21.88 192
21.94 231
22 204
22.06 213
22.12 246
22.18 216
22.24 267
22.3 206
22.36 236
22.42 231
22.48 246
22.54 226
22.6 252
22.66 218
22.72 198
22.78 234
22.84 209
22.9 230
22.96 205
23.02 232
23.08 239
23.14 215
23.2 204
23.26 232
23.32 243
23.38 215
23.44 196
23.5 224
23.56 198
23.62 211
23.68 200
23.74 221
23.8 200
23.86 214
23.92 240
23.98 192
24.04 193
24.1 209
24.16 212
24.22 237
24.28 206
24.34 236
24.4 204
24.46 218
24.52 221
24.58 213
24.64 207
24.7 218
24.76 226
24.82 215
24.88 233
24.94 230
25 209
25.06 232
25.12 185
25.18 196
25.24 205
25.3 203
25.36 219
25.42 215
25.48 193
25.54 225
25.6 224
25.66 180
25.72 213
25.78 221
25.84 220
25.9 231
25.96 209
26.02 201
26.08 220
26.14 192
26.2 220
26.26 236
26.32 210
26.38 206
26.44 209
26.5 188
26.56 251
26.62 201
26.68 199
26.74 220
26.8 220
26.86 231
26.92 195
26.98 207
27.04 195
27.1 238
27.16 235
27.22 206
27.28 224
27.34 217
27.4 226
27.46 198
27.52 221
27.58 207
27.64 224
27.7 212
27.76 244
27.82 218
27.88 239
27.94 201
28 201
28.06 205
28.12 208
28.18 215
28.24 206
28.3 219
28.36 187
28.42 189
28.48 229
28.54 185
28.6 212
28.66 205
28.72 186
28.78 192
28.84 221
28.9 198
28.96 196
29.02 194
29.08 185
29.14 219
29.2 201
29.26 166
29.32 214
29.38 203
29.44 188
29.5 184
29.56 213
29.62 210
29.68 193
29.74 195
29.8 173
29.86 193
29.92 216
29.98 198
30.04 197
30.1 176
30.16 201
30.22 204
30.28 191
30.34 183
30.4 179
30.46 171
30.52 207
30.58 212
30.64 200
30.7 170
30.76 186
30.82 187
30.88 182
30.94 169
31 180
31.06 175
31.12 191
31.18 159
31.24 173
31.3 177
31.36 179
31.42 196
31.48 186
31.54 163
31.6 142
31.66 178
31.72 161
31.78 172
31.84 152
31.9 181
31.96 162
32.02 162
32.08 170
32.14 168
32.2 168
32.26 154
32.32 152
32.38 166
32.44 154
32.5 150
32.56 147
32.62 162
32.68 167
32.74 151
32.8 157
32.86 157
32.92 141
32.98 177
33.04 133
33.1 130
33.16 173
33.22 167
33.28 158
33.34 158
33.4 159
33.46 158
33.52 157
33.58 171
33.64 149
33.7 136
33.76 161
33.82 125
33.88 156
33.94 137
34 151
34.06 112
34.12 130
34.18 138
34.24 138
34.3 128
34.36 153
34.42 125
34.48 159
34.54 128
34.6 140
34.66 141
34.72 141
34.78 124
34.84 111
34.9 111
34.96 130
35.02 117
35.08 119
35.14 135
35.2 142
35.26 113
35.32 149
35.38 112
35.44 145
35.5 125
35.56 105
35.62 133
35.68 115
35.74 125
35.8 112
35.86 103
35.92 123
35.98 123
36.04 105
36.1 121
36.16 116
36.22 118
36.28 117
36.34 96
36.4 111
36.46 123
36.52 110
36.58 109
36.64 116
36.7 88
36.76 106
36.82 117
36.88 120
36.94 112
37 89
37.06 97
37.12 113
37.18 91
37.24 98
37.3 118
37.36 93
37.42 91
37.48 110
37.54 115
37.6 120
37.66 91
37.72 107
37.78 101
37.84 87
37.9 95
37.96 110
38.02 102
38.08 115
38.14 100
38.2 90
38.26 91
38.32 111
38.38 98
38.44 85
38.5 115
38.56 112
38.62 107
38.68 126
38.74 104
38.8 99
38.86 88
38.92 92
38.98 88
39.04 98
39.1 95
39.16 91
39.22 114
39.28 113
39.34 98
39.4 96
39.46 105
39.52 95
39.58 103
39.64 90
39.7 91
39.76 106
39.82 81
39.88 95
39.94 104
40 112
40.06 96
40.12 95
40.18 101
40.24 90
40.3 91
40.36 104
40.42 100
40.48 84
40.54 97
40.6 92
40.66 98
40.72 95
40.78 98
40.84 94
40.9 101
40.96 109
41.02 102
41.08 102
41.14 98
41.2 93
41.26 106
41.32 100
41.38 123
41.44 100
41.5 96
41.56 82
41.62 87
41.68 82
41.74 82
41.8 102
41.86 90
41.92 97
41.98 111
42.04 92
42.1 74
42.16 92
42.22 92
42.28 105
42.34 95
42.4 86
42.46 104
42.52 89
42.58 94
42.64 94
42.7 104
42.76 97
42.82 95
42.88 80
42.94 90
43 87
43.06 81
43.12 96
43.18 102
43.24 90
43.3 81
43.36 89
43.42 100
43.48 100
43.54 92
43.6 100
43.66 90
43.72 86
43.78 82
43.84 90
43.9 99
43.96 86
44.02 98
44.08 97
44.14 78
44.2 94
44.26 80
44.32 99
44.38 92
44.44 88
44.5 93
44.56 91
44.62 88
44.68 91
44.74 93
44.8 92
44.86 75
44.92 96
44.98 96
45.04 101
45.1 76
45.16 82
45.22 102
45.28 85
45.34 90
45.4 84
45.46 83
45.52 93
45.58 90
45.64 97
45.7 96
45.76 91
45.82 88
45.88 81
45.94 80
46 82
46.06 84
46.12 88
46.18 95
46.24 85
46.3 77
46.36 97
46.42 91
46.48 105
46.54 96
46.6 89
46.66 94
46.72 74
46.78 88
46.84 78
46.9 84
46.96 106
47.02 96
47.08 87
47.14 81
47.2 81
47.26 92
47.32 82
47.38 99
47.44 89
47.5 83
47.56 85
47.62 65
47.68 104
47.74 87
47.8 98
47.86 73
47.92 82
47.98 83
48.04 85
48.1 62
48.16 84
48.22 90
48.28 93
48.34 84
48.4 69
48.46 82
48.52 101
48.58 70
48.64 85
48.7 91
48.76 88
48.82 81
48.88 89
48.94 85
49 99
49.06 75
49.12 73
49.18 74
49.24 66
49.3 78
49.36 71
49.42 82
49.48 81
49.54 86
49.6 93
49.66 82
49.72 85
49.78 80
49.84 86
49.9 88
49.96 88
50.02 89
50.08 87
50.14 88
50.2 78
50.26 67
50.32 93
50.38 78
50.44 99
50.5 77
50.56 89
50.62 79
50.68 79
50.74 71
50.8 85
50.86 76
50.92 97
50.98 78
51.04 86
51.1 83
51.16 77
51.22 101
51.28 80
51.34 68
51.4 74
51.46 63
51.52 87
51.58 62
51.64 93
51.7 80
51.76 91
51.82 78
51.88 80
51.94 91
52 79
52.06 89
52.12 79
52.18 70
52.24 78
52.3 87
52.36 74
52.42 79
52.48 80
52.54 102
52.6 99
52.66 79
52.72 69
52.78 94
52.84 85
52.9 75
52.96 87
53.02 69
53.08 76
53.14 72
53.2 70
53.26 94
53.32 80
53.38 81
53.44 69
53.5 78
53.56 85
53.62 77
53.68 92
53.74 70
53.8 89
53.86 98
53.92 98
53.98 74
54.04 71
54.1 64
54.16 79
54.22 77
54.28 78
54.34 81
54.4 80
54.46 71
54.52 61
54.58 67
54.64 85
54.7 79
54.76 67
54.82 81
54.88 74
54.94 76
55 75
55.06 65
55.12 66
55.18 74
55.24 64
55.3 81
55.36 79
55.42 83
55.48 78
55.54 80
55.6 72
55.66 85
55.72 76
55.78 75
55.84 84
55.9 76
55.96 76
56.02 67
56.08 79
56.14 70
56.2 78
56.26 93
56.32 90
56.38 71
56.44 86
56.5 76
56.56 89
56.62 63
56.68 78
56.74 73
56.8 69
56.86 73
56.92 95
56.98 88
57.04 69
57.1 80
57.16 83
57.22 77
57.28 57
57.34 66
57.4 75
57.46 63
57.52 89
57.58 73
57.64 68
57.7 81
57.76 77
57.82 66
57.88 84
57.94 90
58 91
58.06 80
58.12 57
58.18 80
58.24 93
58.3 80
58.36 88
58.42 80
58.48 90
58.54 86
58.6 76
58.66 85
58.72 84
58.78 69
58.84 74
58.9 87
58.96 78
59.02 74
59.08 86
59.14 80
59.2 69
59.26 77
59.32 77
59.38 72
59.44 68
59.5 74
59.56 82
59.62 80
59.68 81
59.74 81
59.8 84
59.86 89
59.92 74
59.98 77
60.04 57
60.1 79
60.16 72
60.22 66
60.28 77
60.34 89
60.4 81
60.46 80
60.52 76
60.58 76
60.64 79
60.7 74
60.76 82
60.82 54
60.88 87
60.94 76
61 71
61.06 83
61.12 78
61.18 73
61.24 76
61.3 74
61.36 74
61.42 76
61.48 71
61.54 79
61.6 69
61.66 58
61.72 75
61.78 77
61.84 70
61.9 71
61.96 77
62.02 83
62.08 78
62.14 76
62.2 78
62.26 58
62.32 77
62.38 67
62.44 70
62.5 66
62.56 70
62.62 54
62.68 82
62.74 91
62.8 87
62.86 65
62.92 72
62.98 72
63.04 68
63.1 71
63.16 76
63.22 84
63.28 73
63.34 71
63.4 66
63.46 73
63.52 91
63.58 63
63.64 74
63.7 63
63.76 102
63.82 83
63.88 77
63.94 77
64 76
64.06 75
64.12 77
64.18 70
64.24 67
64.3 81
64.36 79
64.42 83
64.48 70
64.54 67
64.6 74
64.66 102
64.72 67
64.78 72
64.84 65
64.9 83
64.96 79
65.02 74
65.08 76
65.14 82
65.2 78
65.26 55
65.32 68
65.38 78
65.44 81
65.5 80
65.56 77
65.62 74
65.68 73
65.74 73
65.8 71
65.86 75
65.92 87
65.98 67
66.04 73
66.1 78
66.16 80
66.22 92
66.28 74
66.34 83
66.4 71
66.46 65
66.52 67
66.58 64
66.64 73
66.7 68
66.76 67
66.82 53
66.88 74
66.94 74
67 83
67.06 78
67.12 62
67.18 65
67.24 84
67.3 86
67.36 68
67.42 69
67.48 77
67.54 67
67.6 58
67.66 68
67.72 91
67.78 65
67.84 67
67.9 66
67.96 67
68.02 78
68.08 80
68.14 70
68.2 71
68.26 84
68.32 69
68.38 72
68.44 67
68.5 69
68.56 63
68.62 58
68.68 59
68.74 74
68.8 70
68.86 68
68.92 66
68.98 65
69.04 60
69.1 72
69.16 38
69.22 65
69.28 73
69.34 61
69.4 67
69.46 76
69.52 65
69.58 67
69.64 75
69.7 54
69.76 57
69.82 75
69.88 74
69.94 58
70 55
70.06 58
70.12 62
70.18 56
70.24 71
70.3 66
70.36 60
70.42 52
70.48 60
70.54 62
70.6 57
70.66 66
70.72 53
70.78 61
70.84 69
70.9 62
70.96 59
71.02 68
71.08 53
71.14 76
71.2 55
71.26 53
71.32 74
71.38 61
71.44 59
71.5 65
71.56 59
71.62 67
71.68 62
71.74 60
71.8 59
71.86 60
71.92 66
71.98 59
72.04 61
72.1 56
72.16 48
72.22 64
72.28 57
72.34 47
72.4 64
72.46 74
72.52 71
72.58 64
72.64 65
72.7 58
72.76 66
72.82 48
72.88 78
72.94 71
73 53
73.06 66
73.12 61
73.18 74
73.24 62
73.3 62
73.36 75
73.42 75
73.48 64
73.54 60
73.6 57
73.66 64
73.72 63
73.78 72
73.84 72
73.9 54
73.96 66
74.02 63
74.08 56
74.14 68
74.2 77
74.26 81
74.32 59
74.38 73
74.44 65
74.5 59
74.56 49
74.62 73
74.68 58
74.74 63
74.8 61
74.86 48
74.92 63
74.98 64
75.04 53
75.1 57
75.16 67
75.22 61
75.28 63
75.34 67
75.4 51
75.46 65
75.52 58
75.58 72
75.64 61
75.7 66
75.76 49
75.82 61
75.88 58
75.94 53
76 57
76.06 59
76.12 65
76.18 67
76.24 61
76.3 61
76.36 40
76.42 59
76.48 59
76.54 80
76.6 57
76.66 47
76.72 54
76.78 72
76.84 61
76.9 53
76.96 66
77.02 67
77.08 58
77.14 63
77.2 69
77.26 67
77.32 64
77.38 52
77.44 58
77.5 46
77.56 53
77.62 60
77.68 55
77.74 66
77.8 55
77.86 54
77.92 55
77.98 66
78.04 43
78.1 67
78.16 69
78.22 49
78.28 50
78.34 82
78.4 55
78.46 63
78.52 44
78.58 42
78.64 54
78.7 57
78.76 50
78.82 43
78.88 59
78.94 57
79 51
79.06 58
79.12 67
79.18 55
79.24 54
79.3 50
79.36 56
79.42 51
79.48 59
79.54 60
79.6 58
79.66 54
79.72 49
79.78 68
79.84 54
79.9 53
79.96 56
80.02 54
80.08 47
80.14 57
80.2 43
80.26 57
80.32 52
80.38 52
80.44 55
80.5 62
80.56 50
80.62 45
80.68 50
80.74 63
80.8 68
80.86 48
80.92 45
80.98 49
81.04 54
81.1 54
81.16 54
81.22 70
81.28 46
81.34 51
81.4 40
81.46 54
81.52 52
81.58 47
81.64 54
81.7 49
81.76 58
81.82 57
81.88 42
81.94 57
82 50
82.06 54
82.12 60
82.18 45
82.24 56
82.3 50
82.36 46
82.42 49
82.48 42
82.54 70
82.6 47
82.66 42
82.72 52
82.78 44
82.84 35
82.9 46
82.96 56
83.02 56
83.08 63
83.14 40
83.2 44
83.26 67
83.32 46
83.38 48
83.44 47
83.5 54
83.56 32
83.62 50
83.68 43
83.74 52
83.8 52
83.86 45
83.92 52
83.98 66
84.04 49
84.1 45
84.16 46
84.22 55
84.28 39
84.34 47
84.4 56
84.46 44
84.52 49
84.58 51
84.64 44
84.7 57
84.76 43
84.82 49
84.88 46
84.94 48
85 41
85.06 54
85.12 42
85.18 41
85.24 41
85.3 45
85.36 49
85.42 39
85.48 34
85.54 33
85.6 41
85.66 46
85.72 48
85.78 50
85.84 38
85.9 45
85.96 40
86.02 43
86.08 40
86.14 57
86.2 48
86.26 46
86.32 41
86.38 51
86.44 51
86.5 48
86.56 31
86.62 48
86.68 52
86.74 47
86.8 48
86.86 55
86.92 50
86.98 42
87.04 41
87.1 53
87.16 64
87.22 41
87.28 49
87.34 51
87.4 51
87.46 33
87.52 49
87.58 40
87.64 48
87.7 48
87.76 44
87.82 47
87.88 40
87.94 39
88 44
88.06 50
88.12 39
88.18 42
88.24 43
88.3 38
88.36 44
88.42 47
88.48 35
88.54 44
88.6 34
88.66 50
88.72 37
88.78 42
88.84 44
88.9 42
88.96 45
89.02 45
89.08 49
89.14 43
89.2 50
89.26 44
89.32 39
89.38 35
89.44 49
89.5 36
89.56 42
89.62 33
89.68 60
89.74 37
89.8 46
89.86 49
89.92 41
89.98 46
90 50