File: 研究/Sn/Sn_X線/190306/SnonSi_Kenma#2000_K2SnO3aq_20190122.TXT
Sample SnonSi_å§ñÅÇ†ÇË_SnÇ
Comments rapid
Filename C:\WINDMAX\DATA\SHIMANO\XRD20190306\SnonSi_Kenma#2000_K2SnO3aq_20190122.raw
Goniometer TTRáV êÖïΩ∫ﬁ∆µ“∞¿(Tsé≤éËìÆ,ADS)
Attachment ïWèÄééóøŒŸ¿ﬁ∞
Monochromater å≈íË”…∏€“∞¿
ScanningMode 2Theta/Theta
ScanningType Continuos Scanning
X-Ray 40kV/300mA
î≠éUΩÿØƒ 2/3Åã
î≠éUècêßå¿ΩÿØƒ 2mm
éUóêΩÿØƒ 2/3Åã
éÛåıΩÿØƒ 0.3mm
±Ø√»∞¿ äJï˙
”…∏€éÛåıΩÿØƒ 0.8mm
Start 10
Stop 90
Step 0.02
10 36
10.06 34
10.12 33
10.18 39
10.24 40
10.3 32
10.36 38
10.42 32
10.48 34
10.54 38
10.6 42
10.66 32
10.72 41
10.78 43
10.84 47
10.9 38
10.96 38
11.02 37
11.08 40
11.14 30
11.2 36
11.26 43
11.32 43
11.38 42
11.44 39
11.5 38
11.56 35
11.62 40
11.68 37
11.74 35
11.8 47
11.86 40
11.92 32
11.98 46
12.04 39
12.1 44
12.16 32
12.22 37
12.28 34
12.34 31
12.4 40
12.46 51
12.52 33
12.58 34
12.64 43
12.7 39
12.76 40
12.82 25
12.88 42
12.94 26
13 40
13.06 41
13.12 37
13.18 39
13.24 43
13.3 43
13.36 46
13.42 36
13.48 46
13.54 27
13.6 46
13.66 48
13.72 48
13.78 38
13.84 34
13.9 38
13.96 39
14.02 46
14.08 40
14.14 34
14.2 32
14.26 51
14.32 34
14.38 50
14.44 48
14.5 51
14.56 41
14.62 35
14.68 45
14.74 50
14.8 46
14.86 48
14.92 50
14.98 49
15.04 52
15.1 43
15.16 48
15.22 50
15.28 41
15.34 48
15.4 51
15.46 59
15.52 52
15.58 37
15.64 39
15.7 38
15.76 40
15.82 40
15.88 46
15.94 53
16 57
16.06 45
16.12 37
16.18 44
16.24 56
16.3 44
16.36 50
16.42 61
16.48 47
16.54 39
16.6 58
16.66 42
16.72 49
16.78 41
16.84 43
16.9 33
16.96 41
17.02 49
17.08 55
17.14 44
17.2 42
17.26 45
17.32 53
17.38 44
17.44 54
17.5 51
17.56 54
17.62 40
17.68 34
17.74 41
17.8 56
17.86 53
17.92 56
17.98 45
18.04 52
18.1 45
18.16 51
18.22 51
18.28 53
18.34 42
18.4 61
18.46 49
18.52 39
18.58 52
18.64 49
18.7 49
18.76 60
18.82 43
18.88 59
18.94 67
19 52
19.06 48
19.12 57
19.18 53
19.24 58
19.3 50
19.36 69
19.42 56
19.48 57
19.54 64
19.6 58
19.66 77
19.72 69
19.78 49
19.84 61
19.9 62
19.96 73
20.02 56
20.08 55
20.14 66
20.2 63
20.26 66
20.32 69
20.38 69
20.44 63
20.5 72
20.56 45
20.62 61
20.68 64
20.74 70
20.8 74
20.86 90
20.92 67
20.98 74
21.04 87
21.1 77
21.16 70
21.22 95
21.28 84
21.34 78
21.4 69
21.46 83
21.52 98
21.58 79
21.64 90
21.7 83
21.76 97
21.82 83
21.88 94
21.94 87
22 89
22.06 99
22.12 92
22.18 97
22.24 99
22.3 88
22.36 95
22.42 101
22.48 104
22.54 95
22.6 94
22.66 104
22.72 91
22.78 93
22.84 80
22.9 96
22.96 95
23.02 84
23.08 88
23.14 78
23.2 79
23.26 100
23.32 85
23.38 68
23.44 90
23.5 61
23.56 61
23.62 89
23.68 61
23.74 68
23.8 76
23.86 72
23.92 71
23.98 60
24.04 88
24.1 74
24.16 75
24.22 68
24.28 67
24.34 74
24.4 77
24.46 74
24.52 79
24.58 68
24.64 53
24.7 65
24.76 76
24.82 74
24.88 71
24.94 64
25 57
25.06 66
25.12 81
25.18 72
25.24 63
25.3 62
25.36 64
25.42 79
25.48 71
25.54 71
25.6 73
25.66 57
25.72 63
25.78 81
25.84 63
25.9 81
25.96 73
26.02 74
26.08 75
26.14 57
26.2 82
26.26 68
26.32 80
26.38 57
26.44 74
26.5 64
26.56 55
26.62 71
26.68 57
26.74 73
26.8 71
26.86 57
26.92 60
26.98 68
27.04 76
27.1 59
27.16 66
27.22 82
27.28 63
27.34 79
27.4 86
27.46 78
27.52 67
27.58 57
27.64 66
27.7 52
27.76 76
27.82 63
27.88 76
27.94 77
28 57
28.06 64
28.12 82
28.18 77
28.24 68
28.3 56
28.36 61
28.42 61
28.48 69
28.54 57
28.6 73
28.66 57
28.72 76
28.78 61
28.84 60
28.9 40
28.96 62
29.02 61
29.08 66
29.14 54
29.2 63
29.26 55
29.32 60
29.38 63
29.44 58
29.5 68
29.56 80
29.62 54
29.68 61
29.74 50
29.8 46
29.86 56
29.92 67
29.98 59
30.04 50
30.1 64
30.16 55
30.22 69
30.28 64
30.34 48
30.4 56
30.46 58
30.52 91
30.58 182
30.64 140
30.7 117
30.76 71
30.82 56
30.88 59
30.94 47
31 68
31.06 49
31.12 64
31.18 60
31.24 40
31.3 46
31.36 49
31.42 55
31.48 54
31.54 55
31.6 59
31.66 58
31.72 51
31.78 60
31.84 73
31.9 63
31.96 74
32.02 81
32.08 58
32.14 59
32.2 65
32.26 51
32.32 63
32.38 57
32.44 51
32.5 62
32.56 56
32.62 63
32.68 66
32.74 47
32.8 47
32.86 51
32.92 39
32.98 44
33.04 49
33.1 37
33.16 56
33.22 51
33.28 47
33.34 50
33.4 48
33.46 53
33.52 49
33.58 50
33.64 51
33.7 26
33.76 55
33.82 59
33.88 48
33.94 59
34 48
34.06 46
34.12 48
34.18 35
34.24 39
34.3 49
34.36 49
34.42 47
34.48 47
34.54 42
34.6 46
34.66 41
34.72 49
34.78 46
34.84 46
34.9 46
34.96 51
35.02 36
35.08 43
35.14 44
35.2 45
35.26 39
35.32 50
35.38 40
35.44 49
35.5 43
35.56 36
35.62 42
35.68 42
35.74 32
35.8 42
35.86 38
35.92 27
35.98 30
36.04 37
36.1 38
36.16 41
36.22 34
36.28 32
36.34 37
36.4 38
36.46 34
36.52 43
36.58 50
36.64 38
36.7 38
36.76 29
36.82 22
36.88 40
36.94 27
37 30
37.06 41
37.12 40
37.18 30
37.24 33
37.3 37
37.36 39
37.42 33
37.48 36
37.54 47
37.6 29
37.66 23
37.72 35
37.78 22
37.84 35
37.9 39
37.96 28
38.02 25
38.08 32
38.14 23
38.2 31
38.26 35
38.32 35
38.38 29
38.44 34
38.5 28
38.56 38
38.62 43
38.68 35
38.74 26
38.8 19
38.86 47
38.92 33
38.98 36
39.04 35
39.1 41
39.16 35
39.22 34
39.28 49
39.34 30
39.4 29
39.46 32
39.52 40
39.58 35
39.64 35
39.7 22
39.76 32
39.82 36
39.88 28
39.94 27
40 25
40.06 37
40.12 34
40.18 27
40.24 29
40.3 32
40.36 33
40.42 37
40.48 29
40.54 16
40.6 45
40.66 30
40.72 27
40.78 36
40.84 39
40.9 28
40.96 31
41.02 30
41.08 44
41.14 40
41.2 23
41.26 21
41.32 34
41.38 22
41.44 21
41.5 26
41.56 34
41.62 29
41.68 42
41.74 32
41.8 30
41.86 35
41.92 39
41.98 27
42.04 40
42.1 25
42.16 36
42.22 24
42.28 28
42.34 28
42.4 23
42.46 42
42.52 32
42.58 37
42.64 31
42.7 28
42.76 25
42.82 27
42.88 21
42.94 31
43 35
43.06 31
43.12 33
43.18 22
43.24 25
43.3 31
43.36 33
43.42 33
43.48 18
43.54 27
43.6 21
43.66 29
43.72 39
43.78 39
43.84 32
43.9 31
43.96 31
44.02 30
44.08 40
44.14 30
44.2 38
44.26 31
44.32 26
44.38 41
44.44 31
44.5 36
44.56 34
44.62 35
44.68 22
44.74 31
44.8 31
44.86 34
44.92 29
44.98 37
45.04 33
45.1 30
45.16 41
45.22 28
45.28 31
45.34 26
45.4 37
45.46 31
45.52 26
45.58 24
45.64 22
45.7 32
45.76 33
45.82 28
45.88 28
45.94 33
46 31
46.06 37
46.12 31
46.18 22
46.24 28
46.3 26
46.36 33
46.42 27
46.48 33
46.54 23
46.6 24
46.66 30
46.72 26
46.78 35
46.84 22
46.9 37
46.96 36
47.02 29
47.08 31
47.14 31
47.2 22
47.26 26
47.32 37
47.38 30
47.44 21
47.5 34
47.56 29
47.62 19
47.68 34
47.74 26
47.8 24
47.86 24
47.92 25
47.98 27
48.04 31
48.1 27
48.16 26
48.22 28
48.28 23
48.34 30
48.4 31
48.46 25
48.52 27
48.58 36
48.64 24
48.7 23
48.76 31
48.82 21
48.88 19
48.94 18
49 25
49.06 30
49.12 21
49.18 32
49.24 25
49.3 28
49.36 32
49.42 23
49.48 32
49.54 22
49.6 30
49.66 20
49.72 32
49.78 38
49.84 22
49.9 28
49.96 23
50.02 25
50.08 29
50.14 33
50.2 31
50.26 20
50.32 26
50.38 23
50.44 26
50.5 34
50.56 25
50.62 25
50.68 21
50.74 16
50.8 26
50.86 20
50.92 23
50.98 14
51.04 20
51.1 28
51.16 29
51.22 23
51.28 21
51.34 27
51.4 28
51.46 25
51.52 19
51.58 24
51.64 25
51.7 24
51.76 26
51.82 35
51.88 20
51.94 28
52 11
52.06 21
52.12 23
52.18 33
52.24 25
52.3 23
52.36 26
52.42 24
52.48 32
52.54 27
52.6 26
52.66 24
52.72 26
52.78 22
52.84 27
52.9 29
52.96 22
53.02 19
53.08 31
53.14 29
53.2 28
53.26 24
53.32 28
53.38 26
53.44 20
53.5 14
53.56 29
53.62 20
53.68 21
53.74 23
53.8 32
53.86 25
53.92 24
53.98 20
54.04 21
54.1 26
54.16 27
54.22 24
54.28 18
54.34 23
54.4 29
54.46 19
54.52 17
54.58 26
54.64 16
54.7 24
54.76 24
54.82 22
54.88 25
54.94 22
55 18
55.06 25
55.12 37
55.18 22
55.24 28
55.3 22
55.36 24
55.42 32
55.48 29
55.54 24
55.6 22
55.66 24
55.72 21
55.78 22
55.84 27
55.9 24
55.96 23
56.02 21
56.08 25
56.14 24
56.2 21
56.26 20
56.32 26
56.38 24
56.44 29
56.5 20
56.56 30
56.62 27
56.68 21
56.74 28
56.8 30
56.86 26
56.92 16
56.98 25
57.04 22
57.1 25
57.16 28
57.22 22
57.28 15
57.34 20
57.4 22
57.46 27
57.52 31
57.58 23
57.64 26
57.7 14
57.76 31
57.82 25
57.88 32
57.94 18
58 20
58.06 22
58.12 26
58.18 26
58.24 22
58.3 26
58.36 13
58.42 24
58.48 20
58.54 18
58.6 24
58.66 21
58.72 13
58.78 21
58.84 28
58.9 27
58.96 23
59.02 26
59.08 24
59.14 25
59.2 22
59.26 23
59.32 19
59.38 15
59.44 23
59.5 20
59.56 26
59.62 23
59.68 31
59.74 24
59.8 14
59.86 27
59.92 29
59.98 26
60.04 28
60.1 19
60.16 23
60.22 26
60.28 20
60.34 24
60.4 25
60.46 39
60.52 28
60.58 23
60.64 28
60.7 25
60.76 17
60.82 25
60.88 20
60.94 29
61 28
61.06 21
61.12 36
61.18 19
61.24 23
61.3 14
61.36 26
61.42 23
61.48 17
61.54 23
61.6 31
61.66 30
61.72 34
61.78 14
61.84 20
61.9 26
61.96 29
62.02 15
62.08 22
62.14 25
62.2 32
62.26 28
62.32 27
62.38 18
62.44 27
62.5 25
62.56 23
62.62 27
62.68 24
62.74 18
62.8 22
62.86 31
62.92 24
62.98 26
63.04 39
63.1 22
63.16 27
63.22 24
63.28 23
63.34 20
63.4 20
63.46 31
63.52 27
63.58 32
63.64 22
63.7 25
63.76 43
63.82 25
63.88 21
63.94 33
64 19
64.06 17
64.12 26
64.18 21
64.24 19
64.3 26
64.36 21
64.42 25
64.48 23
64.54 27
64.6 26
64.66 18
64.72 25
64.78 17
64.84 29
64.9 20
64.96 24
65.02 20
65.08 20
65.14 14
65.2 18
65.26 25
65.32 26
65.38 17
65.44 22
65.5 28
65.56 16
65.62 17
65.68 21
65.74 22
65.8 16
65.86 21
65.92 26
65.98 21
66.04 30
66.1 30
66.16 24
66.22 29
66.28 28
66.34 31
66.4 28
66.46 18
66.52 24
66.58 23
66.64 26
66.7 28
66.76 30
66.82 27
66.88 34
66.94 27
67 31
67.06 30
67.12 31
67.18 39
67.24 41
67.3 24
67.36 38
67.42 39
67.48 42
67.54 43
67.6 47
67.66 47
67.72 50
67.78 62
67.84 79
67.9 94
67.96 87
68.02 103
68.08 110
68.14 116
68.2 148
68.26 147
68.32 176
68.38 188
68.44 253
68.5 289
68.56 338
68.62 458
68.68 729
68.74 1216
68.8 1401
68.86 1439
68.92 2147
68.98 4640
69.04 20972
69.1 0
69.16 32743
69.22 11003
69.28 0
69.34 0
69.4 5487
69.46 2464
69.52 1600
69.58 1089
69.64 850
69.7 653
69.76 554
69.82 499
69.88 411
69.94 391
70 363
70.06 358
70.12 320
70.18 266
70.24 249
70.3 245
70.36 228
70.42 237
70.48 220
70.54 198
70.6 164
70.66 155
70.72 147
70.78 160
70.84 122
70.9 108
70.96 134
71.02 111
71.08 103
71.14 80
71.2 75
71.26 76
71.32 69
71.38 59
71.44 58
71.5 52
71.56 49
71.62 43
71.68 45
71.74 52
71.8 31
71.86 38
71.92 29
71.98 29
72.04 29
72.1 23
72.16 21
72.22 33
72.28 25
72.34 29
72.4 25
72.46 22
72.52 25
72.58 25
72.64 24
72.7 30
72.76 25
72.82 28
72.88 21
72.94 14
73 17
73.06 18
73.12 26
73.18 14
73.24 15
73.3 20
73.36 22
73.42 19
73.48 13
73.54 24
73.6 15
73.66 19
73.72 20
73.78 19
73.84 17
73.9 15
73.96 15
74.02 21
74.08 22
74.14 24
74.2 12
74.26 14
74.32 19
74.38 13
74.44 18
74.5 15
74.56 10
74.62 21
74.68 19
74.74 19
74.8 22
74.86 14
74.92 19
74.98 11
75.04 13
75.1 22
75.16 17
75.22 17
75.28 14
75.34 26
75.4 24
75.46 25
75.52 15
75.58 23
75.64 15
75.7 19
75.76 11
75.82 20
75.88 18
75.94 22
76 19
76.06 18
76.12 16
76.18 11
76.24 22
76.3 18
76.36 16
76.42 13
76.48 13
76.54 11
76.6 9
76.66 19
76.72 18
76.78 15
76.84 18
76.9 13
76.96 11
77.02 13
77.08 10
77.14 26
77.2 15
77.26 22
77.32 13
77.38 18
77.44 16
77.5 14
77.56 22
77.62 17
77.68 19
77.74 22
77.8 19
77.86 15
77.92 12
77.98 9
78.04 20
78.1 23
78.16 11
78.22 22
78.28 20
78.34 21
78.4 20
78.46 22
78.52 11
78.58 21
78.64 11
78.7 14
78.76 12
78.82 21
78.88 12
78.94 24
79 14
79.06 18
79.12 23
79.18 16
79.24 17
79.3 9
79.36 19
79.42 22
79.48 13
79.54 20
79.6 11
79.66 17
79.72 15
79.78 21
79.84 19
79.9 13
79.96 14
80.02 18
80.08 16
80.14 13
80.2 12
80.26 16
80.32 15
80.38 10
80.44 15
80.5 26
80.56 18
80.62 15
80.68 18
80.74 17
80.8 7
80.86 12
80.92 17
80.98 12
81.04 13
81.1 4
81.16 17
81.22 17
81.28 12
81.34 22
81.4 16
81.46 14
81.52 12
81.58 15
81.64 15
81.7 12
81.76 18
81.82 18
81.88 17
81.94 16
82 13
82.06 20
82.12 15
82.18 9
82.24 12
82.3 18
82.36 16
82.42 16
82.48 21
82.54 9
82.6 13
82.66 13
82.72 13
82.78 18
82.84 9
82.9 18
82.96 18
83.02 16
83.08 18
83.14 10
83.2 13
83.26 9
83.32 14
83.38 18
83.44 14
83.5 18
83.56 18
83.62 14
83.68 11
83.74 8
83.8 12
83.86 12
83.92 19
83.98 12
84.04 16
84.1 9
84.16 7
84.22 12
84.28 13
84.34 12
84.4 18
84.46 14
84.52 12
84.58 16
84.64 22
84.7 13
84.76 13
84.82 16
84.88 8
84.94 11
85 8
85.06 11
85.12 17
85.18 15
85.24 21
85.3 16
85.36 16
85.42 8
85.48 9
85.54 9
85.6 11
85.66 18
85.72 11
85.78 17
85.84 18
85.9 17
85.96 9
86.02 8
86.08 12
86.14 14
86.2 15
86.26 12
86.32 17
86.38 6
86.44 18
86.5 11
86.56 23
86.62 11
86.68 11
86.74 14
86.8 18
86.86 13
86.92 10
86.98 13
87.04 16
87.1 8
87.16 14
87.22 14
87.28 15
87.34 13
87.4 16
87.46 14
87.52 8
87.58 18
87.64 13
87.7 3
87.76 11
87.82 11
87.88 11
87.94 17
88 16
88.06 18
88.12 10
88.18 5
88.24 9
88.3 11
88.36 9
88.42 16
88.48 5
88.54 11
88.6 17
88.66 16
88.72 8
88.78 6
88.84 6
88.9 11
88.96 9
89.02 10
89.08 13
89.14 7
89.2 14
89.26 12
89.32 5
89.38 14
89.44 10
89.5 11
89.56 15
89.62 10
89.68 11
89.74 12
89.8 8
89.86 12
89.92 6
89.98 11
90 9