File: 研究/Sn/Sn_X線/190306/SnonGe-No-Kenma-K2SnO3aq_20190122_std.TXT
Sample SnonGe-å§ñÅÇ»Çµ-SnÇ
Comments medium
Filename C:\WINDMAX\DATA\SHIMANO\XRD20190306\SnonGe-No-Kenma-K2SnO3aq_20190122_std.raw
Goniometer TTRáV êÖïΩ∫ﬁ∆µ“∞¿(Tsé≤éËìÆ,ADS)
Attachment ïWèÄééóøŒŸ¿ﬁ∞
Monochromater å≈íË”…∏€“∞¿
ScanningMode 2Theta/Theta
ScanningType Continuos Scanning
X-Ray 40kV/300mA
î≠éUΩÿØƒ 2/3Åã
î≠éUècêßå¿ΩÿØƒ 10mm
éUóêΩÿØƒ 2/3Åã
éÛåıΩÿØƒ 0.3mm
±Ø√»∞¿ äJï˙
”…∏€éÛåıΩÿØƒ 0.8mm
Start 10
Stop 50
Step 0.02
10 345
10.04 368
10.08 372
10.12 348
10.16 313
10.2 324
10.24 321
10.28 344
10.32 335
10.36 338
10.4 329
10.44 362
10.48 339
10.52 351
10.56 358
10.6 349
10.64 331
10.68 345
10.72 348
10.76 350
10.8 369
10.84 365
10.88 316
10.92 382
10.96 351
11 326
11.04 328
11.08 353
11.12 316
11.16 317
11.2 344
11.24 368
11.28 309
11.32 306
11.36 342
11.4 326
11.44 357
11.48 324
11.52 329
11.56 322
11.6 314
11.64 346
11.68 342
11.72 310
11.76 330
11.8 363
11.84 342
11.88 320
11.92 355
11.96 322
12 342
12.04 316
12.08 316
12.12 322
12.16 348
12.2 333
12.24 285
12.28 331
12.32 310
12.36 298
12.4 314
12.44 315
12.48 294
12.52 294
12.56 308
12.6 357
12.64 342
12.68 335
12.72 330
12.76 321
12.8 376
12.84 332
12.88 335
12.92 369
12.96 312
13 340
13.04 324
13.08 333
13.12 344
13.16 319
13.2 343
13.24 348
13.28 325
13.32 338
13.36 360
13.4 349
13.44 333
13.48 308
13.52 380
13.56 344
13.6 318
13.64 321
13.68 330
13.72 321
13.76 361
13.8 335
13.84 399
13.88 367
13.92 329
13.96 333
14 344
14.04 376
14.08 365
14.12 371
14.16 371
14.2 348
14.24 371
14.28 411
14.32 374
14.36 393
14.4 375
14.44 319
14.48 359
14.52 343
14.56 340
14.6 360
14.64 340
14.68 368
14.72 407
14.76 354
14.8 330
14.84 368
14.88 374
14.92 382
14.96 383
15 382
15.04 367
15.08 396
15.12 388
15.16 373
15.2 366
15.24 362
15.28 377
15.32 353
15.36 350
15.4 389
15.44 384
15.48 399
15.52 355
15.56 383
15.6 386
15.64 365
15.68 345
15.72 362
15.76 385
15.8 376
15.84 341
15.88 365
15.92 400
15.96 366
16 355
16.04 384
16.08 370
16.12 380
16.16 375
16.2 428
16.24 384
16.28 419
16.32 401
16.36 367
16.4 375
16.44 358
16.48 416
16.52 378
16.56 354
16.6 373
16.64 377
16.68 363
16.72 359
16.76 373
16.8 360
16.84 390
16.88 381
16.92 406
16.96 401
17 386
17.04 382
17.08 383
17.12 380
17.16 384
17.2 381
17.24 373
17.28 383
17.32 371
17.36 361
17.4 387
17.44 387
17.48 380
17.52 376
17.56 358
17.6 400
17.64 374
17.68 361
17.72 395
17.76 398
17.8 386
17.84 375
17.88 354
17.92 396
17.96 394
18 404
18.04 386
18.08 402
18.12 418
18.16 404
18.2 400
18.24 409
18.28 442
18.32 396
18.36 368
18.4 366
18.44 377
18.48 430
18.52 404
18.56 393
18.6 423
18.64 436
18.68 399
18.72 414
18.76 414
18.8 391
18.84 384
18.88 433
18.92 409
18.96 387
19 396
19.04 407
19.08 384
19.12 413
19.16 377
19.2 412
19.24 398
19.28 417
19.32 413
19.36 434
19.4 445
19.44 408
19.48 445
19.52 427
19.56 427
19.6 449
19.64 421
19.68 457
19.72 449
19.76 421
19.8 420
19.84 427
19.88 422
19.92 445
19.96 443
20 466
20.04 458
20.08 442
20.12 460
20.16 457
20.2 463
20.24 457
20.28 453
20.32 474
20.36 472
20.4 481
20.44 456
20.48 507
20.52 478
20.56 486
20.6 517
20.64 504
20.68 460
20.72 500
20.76 512
20.8 491
20.84 493
20.88 490
20.92 488
20.96 517
21 516
21.04 538
21.08 498
21.12 531
21.16 512
21.2 537
21.24 534
21.28 544
21.32 510
21.36 567
21.4 586
21.44 603
21.48 550
21.52 582
21.56 557
21.6 604
21.64 590
21.68 655
21.72 587
21.76 609
21.8 645
21.84 636
21.88 672
21.92 641
21.96 700
22 669
22.04 656
22.08 659
22.12 666
22.16 642
22.2 654
22.24 640
22.28 731
22.32 636
22.36 656
22.4 670
22.44 636
22.48 660
22.52 687
22.56 654
22.6 657
22.64 681
22.68 651
22.72 685
22.76 672
22.8 638
22.84 673
22.88 645
22.92 659
22.96 607
23 583
23.04 590
23.08 648
23.12 583
23.16 621
23.2 633
23.24 580
23.28 619
23.32 602
23.36 598
23.4 514
23.44 602
23.48 571
23.52 544
23.56 552
23.6 559
23.64 600
23.68 547
23.72 578
23.76 564
23.8 572
23.84 604
23.88 547
23.92 587
23.96 546
24 551
24.04 574
24.08 527
24.12 535
24.16 572
24.2 533
24.24 524
24.28 543
24.32 550
24.36 568
24.4 638
24.44 544
24.48 566
24.52 518
24.56 572
24.6 568
24.64 542
24.68 525
24.72 520
24.76 522
24.8 503
24.84 544
24.88 530
24.92 541
24.96 540
25 545
25.04 552
25.08 519
25.12 506
25.16 519
25.2 543
25.24 538
25.28 553
25.32 565
25.36 500
25.4 568
25.44 552
25.48 541
25.52 538
25.56 545
25.6 515
25.64 502
25.68 535
25.72 517
25.76 519
25.8 493
25.84 535
25.88 516
25.92 530
25.96 561
26 496
26.04 533
26.08 553
26.12 498
26.16 521
26.2 531
26.24 521
26.28 523
26.32 501
26.36 526
26.4 550
26.44 517
26.48 534
26.52 522
26.56 523
26.6 557
26.64 514
26.68 519
26.72 554
26.76 551
26.8 493
26.84 527
26.88 519
26.92 522
26.96 493
27 555
27.04 549
27.08 508
27.12 533
27.16 520
27.2 562
27.24 543
27.28 566
27.32 570
27.36 527
27.4 536
27.44 520
27.48 550
27.52 492
27.56 498
27.6 548
27.64 549
27.68 538
27.72 510
27.76 523
27.8 570
27.84 522
27.88 499
27.92 547
27.96 518
28 486
28.04 547
28.08 548
28.12 554
28.16 510
28.2 544
28.24 486
28.28 530
28.32 557
28.36 530
28.4 523
28.44 490
28.48 573
28.52 537
28.56 556
28.6 537
28.64 510
28.68 517
28.72 541
28.76 474
28.8 538
28.84 517
28.88 537
28.92 538
28.96 509
29 505
29.04 519
29.08 537
29.12 549
29.16 563
29.2 550
29.24 514
29.28 497
29.32 518
29.36 516
29.4 501
29.44 521
29.48 572
29.52 510
29.56 517
29.6 487
29.64 532
29.68 536
29.72 530
29.76 538
29.8 507
29.84 545
29.88 548
29.92 489
29.96 531
30 539
30.04 515
30.08 540
30.12 509
30.16 506
30.2 489
30.24 472
30.28 508
30.32 515
30.36 483
30.4 498
30.44 519
30.48 506
30.52 496
30.56 481
30.6 543
30.64 487
30.68 487
30.72 494
30.76 478
30.8 509
30.84 515
30.88 535
30.92 490
30.96 490
31 453
31.04 502
31.08 479
31.12 479
31.16 522
31.2 498
31.24 495
31.28 529
31.32 488
31.36 544
31.4 516
31.44 515
31.48 472
31.52 482
31.56 479
31.6 465
31.64 474
31.68 492
31.72 471
31.76 500
31.8 470
31.84 477
31.88 471
31.92 484
31.96 469
32 468
32.04 504
32.08 490
32.12 484
32.16 484
32.2 497
32.24 517
32.28 452
32.32 475
32.36 500
32.4 431
32.44 459
32.48 456
32.52 445
32.56 471
32.6 471
32.64 447
32.68 474
32.72 499
32.76 452
32.8 425
32.84 458
32.88 456
32.92 474
32.96 442
33 418
33.04 436
33.08 435
33.12 464
33.16 465
33.2 442
33.24 444
33.28 443
33.32 455
33.36 491
33.4 433
33.44 442
33.48 464
33.52 469
33.56 432
33.6 446
33.64 418
33.68 412
33.72 432
33.76 442
33.8 407
33.84 424
33.88 398
33.92 419
33.96 410
34 425
34.04 426
34.08 420
34.12 445
34.16 446
34.2 407
34.24 408
34.28 408
34.32 378
34.36 412
34.4 377
34.44 421
34.48 387
34.52 386
34.56 406
34.6 388
34.64 400
34.68 411
34.72 395
34.76 353
34.8 396
34.84 384
34.88 376
34.92 375
34.96 394
35 369
35.04 379
35.08 364
35.12 381
35.16 355
35.2 398
35.24 395
35.28 367
35.32 368
35.36 359
35.4 351
35.44 395
35.48 357
35.52 340
35.56 355
35.6 371
35.64 366
35.68 367
35.72 380
35.76 363
35.8 351
35.84 312
35.88 327
35.92 373
35.96 314
36 310
36.04 350
36.08 339
36.12 348
36.16 363
36.2 333
36.24 390
36.28 337
36.32 348
36.36 361
36.4 339
36.44 346
36.48 310
36.52 333
36.56 333
36.6 331
36.64 319
36.68 331
36.72 334
36.76 294
36.8 299
36.84 322
36.88 352
36.92 328
36.96 313
37 277
37.04 302
37.08 299
37.12 286
37.16 313
37.2 300
37.24 326
37.28 321
37.32 344
37.36 326
37.4 321
37.44 284
37.48 313
37.52 321
37.56 270
37.6 299
37.64 286
37.68 317
37.72 308
37.76 297
37.8 317
37.84 278
37.88 269
37.92 317
37.96 303
38 306
38.04 279
38.08 280
38.12 290
38.16 301
38.2 329
38.24 313
38.28 312
38.32 315
38.36 282
38.4 267
38.44 297
38.48 275
38.52 290
38.56 302
38.6 278
38.64 285
38.68 278
38.72 324
38.76 296
38.8 285
38.84 321
38.88 283
38.92 305
38.96 278
39 304
39.04 309
39.08 276
39.12 272
39.16 292
39.2 279
39.24 327
39.28 304
39.32 295
39.36 291
39.4 280
39.44 304
39.48 304
39.52 279
39.56 270
39.6 299
39.64 337
39.68 299
39.72 278
39.76 278
39.8 285
39.84 275
39.88 271
39.92 289
39.96 285
40 308
40.04 282
40.08 295
40.12 307
40.16 285
40.2 293
40.24 271
40.28 279
40.32 274
40.36 303
40.4 277
40.44 268
40.48 285
40.52 315
40.56 310
40.6 250
40.64 267
40.68 297
40.72 261
40.76 243
40.8 270
40.84 285
40.88 269
40.92 269
40.96 259
41 269
41.04 251
41.08 314
41.12 311
41.16 285
41.2 273
41.24 298
41.28 270
41.32 269
41.36 264
41.4 315
41.44 285
41.48 287
41.52 272
41.56 293
41.6 284
41.64 235
41.68 285
41.72 264
41.76 246
41.8 286
41.84 308
41.88 282
41.92 281
41.96 255
42 316
42.04 280
42.08 275
42.12 277
42.16 276
42.2 274
42.24 262
42.28 278
42.32 307
42.36 264
42.4 275
42.44 293
42.48 273
42.52 310
42.56 273
42.6 258
42.64 280
42.68 278
42.72 275
42.76 285
42.8 284
42.84 316
42.88 253
42.92 277
42.96 240
43 297
43.04 251
43.08 260
43.12 270
43.16 268
43.2 296
43.24 264
43.28 233
43.32 274
43.36 272
43.4 276
43.44 289
43.48 279
43.52 289
43.56 272
43.6 246
43.64 290
43.68 279
43.72 280
43.76 307
43.8 232
43.84 276
43.88 315
43.92 261
43.96 253
44 290
44.04 283
44.08 252
44.12 257
44.16 261
44.2 266
44.24 261
44.28 278
44.32 266
44.36 294
44.4 293
44.44 282
44.48 260
44.52 251
44.56 248
44.6 251
44.64 277
44.68 279
44.72 265
44.76 268
44.8 279
44.84 294
44.88 293
44.92 246
44.96 272
45 270
45.04 324
45.08 269
45.12 298
45.16 291
45.2 314
45.24 330
45.28 333
45.32 345
45.36 312
45.4 305
45.44 313
45.48 286
45.52 274
45.56 260
45.6 256
45.64 268
45.68 253
45.72 279
45.76 259
45.8 277
45.84 276
45.88 282
45.92 298
45.96 251
46 275
46.04 275
46.08 251
46.12 235
46.16 280
46.2 239
46.24 268
46.28 253
46.32 274
46.36 254
46.4 274
46.44 236
46.48 272
46.52 260
46.56 251
46.6 231
46.64 268
46.68 242
46.72 259
46.76 277
46.8 264
46.84 251
46.88 240
46.92 257
46.96 287
47 260
47.04 238
47.08 262
47.12 278
47.16 237
47.2 279
47.24 222
47.28 221
47.32 254
47.36 240
47.4 273
47.44 269
47.48 237
47.52 269
47.56 262
47.6 235
47.64 234
47.68 238
47.72 251
47.76 234
47.8 272
47.84 223
47.88 236
47.92 252
47.96 240
48 227
48.04 244
48.08 255
48.12 248
48.16 250
48.2 233
48.24 265
48.28 256
48.32 253
48.36 265
48.4 241
48.44 230
48.48 268
48.52 237
48.56 243
48.6 247
48.64 240
48.68 267
48.72 234
48.76 256
48.8 234
48.84 254
48.88 236
48.92 237
48.96 255
49 217
49.04 230
49.08 185
49.12 243
49.16 223
49.2 229
49.24 211
49.28 213
49.32 268
49.36 245
49.4 246
49.44 231
49.48 238
49.52 233
49.56 235
49.6 225
49.64 242
49.68 221
49.72 233
49.76 205
49.8 223
49.84 242
49.88 239
49.92 206
49.96 241
50 237