File: 研究/Sn/Sn_X線/190306/SnonSi-No-Kenma-K2SnO3aq_20190122_std.TXT
Sample SnonSi-å§ñÅÇ»Çµ-SnÇ
Comments medium
Filename C:\WINDMAX\DATA\SHIMANO\XRD20190306\SnonSi-No-Kenma-K2SnO3aq_20190122_std.raw
Goniometer TTRáV êÖïΩ∫ﬁ∆µ“∞¿(Tsé≤éËìÆ,ADS)
Attachment ïWèÄééóøŒŸ¿ﬁ∞
Monochromater å≈íË”…∏€“∞¿
ScanningMode 2Theta/Theta
ScanningType Continuos Scanning
X-Ray 40kV/300mA
î≠éUΩÿØƒ 2/3Åã
î≠éUècêßå¿ΩÿØƒ 10mm
éUóêΩÿØƒ 2/3Åã
éÛåıΩÿØƒ 0.3mm
±Ø√»∞¿ äJï˙
”…∏€éÛåıΩÿØƒ 0.8mm
Start 10
Stop 32.76
Step 0.02
10 330
10.02 357
10.04 329
10.06 333
10.08 299
10.1 313
10.12 349
10.14 308
10.16 326
10.18 314
10.2 295
10.22 328
10.24 336
10.26 341
10.28 324
10.3 333
10.32 304
10.34 335
10.36 338
10.38 334
10.4 339
10.42 331
10.44 324
10.46 341
10.48 295
10.5 331
10.52 300
10.54 328
10.56 312
10.58 324
10.6 305
10.62 293
10.64 324
10.66 329
10.68 361
10.7 327
10.72 302
10.74 342
10.76 319
10.78 312
10.8 308
10.82 299
10.84 314
10.86 287
10.88 329
10.9 292
10.92 330
10.94 286
10.96 310
10.98 251
11 311
11.02 291
11.04 325
11.06 324
11.08 285
11.1 289
11.12 356
11.14 307
11.16 289
11.18 303
11.2 318
11.22 302
11.24 306
11.26 347
11.28 311
11.3 311
11.32 308
11.34 306
11.36 318
11.38 279
11.4 293
11.42 305
11.44 291
11.46 304
11.48 308
11.5 303
11.52 293
11.54 299
11.56 311
11.58 291
11.6 298
11.62 315
11.64 302
11.66 318
11.68 285
11.7 315
11.72 291
11.74 286
11.76 309
11.78 317
11.8 294
11.82 284
11.84 294
11.86 288
11.88 308
11.9 314
11.92 308
11.94 298
11.96 300
11.98 330
12 293
12.02 280
12.04 311
12.06 306
12.08 334
12.1 281
12.12 299
12.14 292
12.16 299
12.18 297
12.2 305
12.22 262
12.24 277
12.26 309
12.28 298
12.3 300
12.32 309
12.34 281
12.36 286
12.38 294
12.4 281
12.42 292
12.44 322
12.46 292
12.48 292
12.5 311
12.52 291
12.54 288
12.56 279
12.58 269
12.6 318
12.62 299
12.64 293
12.66 297
12.68 300
12.7 316
12.72 274
12.74 314
12.76 290
12.78 305
12.8 315
12.82 292
12.84 301
12.86 311
12.88 288
12.9 286
12.92 290
12.94 306
12.96 253
12.98 295
13 291
13.02 285
13.04 291
13.06 285
13.08 288
13.1 318
13.12 311
13.14 296
13.16 308
13.18 283
13.2 278
13.22 264
13.24 305
13.26 260
13.28 289
13.3 263
13.32 292
13.34 291
13.36 283
13.38 277
13.4 292
13.42 263
13.44 299
13.46 313
13.48 272
13.5 273
13.52 258
13.54 274
13.56 282
13.58 309
13.6 292
13.62 282
13.64 290
13.66 257
13.68 277
13.7 278
13.72 302
13.74 268
13.76 287
13.78 304
13.8 285
13.82 331
13.84 299
13.86 300
13.88 292
13.9 249
13.92 304
13.94 277
13.96 312
13.98 300
14 288
14.02 289
14.04 288
14.06 294
14.08 291
14.1 312
14.12 298
14.14 307
14.16 306
14.18 317
14.2 300
14.22 299
14.24 253
14.26 277
14.28 282
14.3 321
14.32 302
14.34 305
14.36 281
14.38 308
14.4 291
14.42 292
14.44 286
14.46 305
14.48 301
14.5 323
14.52 298
14.54 312
14.56 305
14.58 288
14.6 273
14.62 312
14.64 284
14.66 321
14.68 284
14.7 278
14.72 306
14.74 266
14.76 320
14.78 324
14.8 303
14.82 344
14.84 298
14.86 290
14.88 319
14.9 306
14.92 290
14.94 313
14.96 274
14.98 310
15 296
15.02 305
15.04 302
15.06 291
15.08 310
15.1 277
15.12 284
15.14 302
15.16 275
15.18 275
15.2 298
15.22 324
15.24 297
15.26 282
15.28 297
15.3 321
15.32 299
15.34 288
15.36 314
15.38 305
15.4 299
15.42 285
15.44 276
15.46 296
15.48 302
15.5 297
15.52 288
15.54 317
15.56 307
15.58 308
15.6 277
15.62 301
15.64 312
15.66 275
15.68 301
15.7 281
15.72 305
15.74 276
15.76 327
15.78 284
15.8 286
15.82 332
15.84 280
15.86 301
15.88 285
15.9 301
15.92 287
15.94 287
15.96 321
15.98 298
16 313
16.02 315
16.04 307
16.06 297
16.08 281
16.1 316
16.12 306
16.14 333
16.16 280
16.18 308
16.2 309
16.22 299
16.24 290
16.26 322
16.28 290
16.3 316
16.32 310
16.34 293
16.36 293
16.38 306
16.4 310
16.42 304
16.44 291
16.46 297
16.48 316
16.5 309
16.52 323
16.54 288
16.56 291
16.58 312
16.6 315
16.62 308
16.64 264
16.66 299
16.68 278
16.7 289
16.72 323
16.74 312
16.76 308
16.78 309
16.8 283
16.82 331
16.84 334
16.86 347
16.88 323
16.9 305
16.92 285
16.94 319
16.96 317
16.98 299
17 355
17.02 299
17.04 347
17.06 348
17.08 338
17.1 323
17.12 324
17.14 324
17.16 338
17.18 338
17.2 349
17.22 327
17.24 323
17.26 315
17.28 334
17.3 317
17.32 317
17.34 332
17.36 306
17.38 334
17.4 344
17.42 317
17.44 336
17.46 302
17.48 325
17.5 309
17.52 358
17.54 316
17.56 318
17.58 308
17.6 355
17.62 357
17.64 305
17.66 294
17.68 338
17.7 347
17.72 307
17.74 309
17.76 339
17.78 350
17.8 333
17.82 337
17.84 321
17.86 337
17.88 322
17.9 313
17.92 301
17.94 354
17.96 308
17.98 335
18 373
18.02 313
18.04 331
18.06 348
18.08 329
18.1 333
18.12 329
18.14 354
18.16 365
18.18 345
18.2 313
18.22 347
18.24 368
18.26 367
18.28 362
18.3 343
18.32 369
18.34 336
18.36 356
18.38 350
18.4 362
18.42 376
18.44 351
18.46 385
18.48 326
18.5 313
18.52 357
18.54 347
18.56 337
18.58 352
18.6 350
18.62 345
18.64 381
18.66 333
18.68 341
18.7 375
18.72 392
18.74 371
18.76 379
18.78 409
18.8 370
18.82 347
18.84 353
18.86 346
18.88 348
18.9 395
18.92 340
18.94 384
18.96 361
18.98 356
19 361
19.02 399
19.04 362
19.06 353
19.08 354
19.1 351
19.12 378
19.14 369
19.16 372
19.18 372
19.2 375
19.22 365
19.24 402
19.26 357
19.28 360
19.3 358
19.32 373
19.34 361
19.36 409
19.38 340
19.4 375
19.42 394
19.44 376
19.46 376
19.48 377
19.5 411
19.52 398
19.54 376
19.56 370
19.58 368
19.6 404
19.62 368
19.64 387
19.66 379
19.68 395
19.7 360
19.72 386
19.74 385
19.76 345
19.78 363
19.8 370
19.82 384
19.84 398
19.86 378
19.88 358
19.9 412
19.92 381
19.94 414
19.96 411
19.98 374
20 393
20.02 394
20.04 414
20.06 395
20.08 363
20.1 391
20.12 389
20.14 384
20.16 413
20.18 419
20.2 403
20.22 409
20.24 414
20.26 407
20.28 400
20.3 368
20.32 414
20.34 420
20.36 430
20.38 413
20.4 409
20.42 428
20.44 407
20.46 408
20.48 372
20.5 399
20.52 434
20.54 370
20.56 438
20.58 410
20.6 409
20.62 393
20.64 457
20.66 385
20.68 419
20.7 404
20.72 415
20.74 418
20.76 430
20.78 489
20.8 409
20.82 366
20.84 455
20.86 423
20.88 429
20.9 419
20.92 437
20.94 439
20.96 459
20.98 424
21 411
21.02 405
21.04 419
21.06 374
21.08 413
21.1 429
21.12 443
21.14 436
21.16 452
21.18 459
21.2 440
21.22 412
21.24 463
21.26 454
21.28 479
21.3 432
21.32 462
21.34 442
21.36 454
21.38 491
21.4 473
21.42 486
21.44 455
21.46 497
21.48 484
21.5 484
21.52 461
21.54 488
21.56 465
21.58 494
21.6 467
21.62 449
21.64 473
21.66 503
21.68 494
21.7 436
21.72 473
21.74 452
21.76 480
21.78 476
21.8 446
21.82 546
21.84 492
21.86 471
21.88 475
21.9 456
21.92 445
21.94 487
21.96 498
21.98 469
22 524
22.02 505
22.04 491
22.06 521
22.08 491
22.1 471
22.12 468
22.14 475
22.16 515
22.18 479
22.2 518
22.22 504
22.24 499
22.26 517
22.28 495
22.3 513
22.32 540
22.34 506
22.36 565
22.38 512
22.4 493
22.42 500
22.44 507
22.46 531
22.48 480
22.5 500
22.52 534
22.54 487
22.56 494
22.58 521
22.6 540
22.62 525
22.64 559
22.66 533
22.68 493
22.7 501
22.72 509
22.74 512
22.76 479
22.78 528
22.8 506
22.82 529
22.84 515
22.86 526
22.88 512
22.9 505
22.92 522
22.94 532
22.96 498
22.98 511
23 511
23.02 556
23.04 530
23.06 505
23.08 533
23.1 542
23.12 527
23.14 498
23.16 515
23.18 529
23.2 495
23.22 520
23.24 499
23.26 490
23.28 534
23.3 519
23.32 509
23.34 481
23.36 496
23.38 506
23.4 483
23.42 479
23.44 494
23.46 473
23.48 513
23.5 455
23.52 497
23.54 501
23.56 500
23.58 501
23.6 526
23.62 471
23.64 493
23.66 446
23.68 490
23.7 467
23.72 494
23.74 483
23.76 483
23.78 481
23.8 506
23.82 536
23.84 494
23.86 490
23.88 487
23.9 509
23.92 462
23.94 477
23.96 469
23.98 522
24 521
24.02 505
24.04 512
24.06 499
24.08 508
24.1 480
24.12 537
24.14 493
24.16 513
24.18 471
24.2 517
24.22 476
24.24 502
24.26 445
24.28 491
24.3 510
24.32 492
24.34 530
24.36 486
24.38 493
24.4 463
24.42 504
24.44 482
24.46 516
24.48 442
24.5 540
24.52 524
24.54 475
24.56 483
24.58 473
24.6 486
24.62 485
24.64 511
24.66 523
24.68 462
24.7 513
24.72 493
24.74 474
24.76 475
24.78 505
24.8 475
24.82 505
24.84 498
24.86 497
24.88 508
24.9 547
24.92 523
24.94 485
24.96 530
24.98 473
25 486
25.02 510
25.04 505
25.06 492
25.08 482
25.1 479
25.12 502
25.14 487
25.16 534
25.18 481
25.2 495
25.22 494
25.24 493
25.26 491
25.28 535
25.3 477
25.32 525
25.34 519
25.36 506
25.38 518
25.4 481
25.42 475
25.44 506
25.46 491
25.48 491
25.5 439
25.52 503
25.54 509
25.56 490
25.58 457
25.6 492
25.62 488
25.64 480
25.66 501
25.68 499
25.7 510
25.72 513
25.74 491
25.76 515
25.78 549
25.8 496
25.82 501
25.84 480
25.86 492
25.88 567
25.9 500
25.92 496
25.94 488
25.96 478
25.98 519
26 515
26.02 489
26.04 525
26.06 502
26.08 494
26.1 486
26.12 515
26.14 463
26.16 535
26.18 495
26.2 511
26.22 522
26.24 505
26.26 520
26.28 476
26.3 481
26.32 478
26.34 547
26.36 480
26.38 518
26.4 481
26.42 500
26.44 524
26.46 519
26.48 510
26.5 483
26.52 502
26.54 479
26.56 510
26.58 485
26.6 504
26.62 479
26.64 511
26.66 493
26.68 508
26.7 506
26.72 523
26.74 536
26.76 496
26.78 540
26.8 503
26.82 534
26.84 529
26.86 491
26.88 529
26.9 493
26.92 531
26.94 530
26.96 545
26.98 501
27 522
27.02 548
27.04 536
27.06 470
27.08 503
27.1 536
27.12 522
27.14 529
27.16 516
27.18 487
27.2 484
27.22 529
27.24 539
27.26 502
27.28 478
27.3 482
27.32 493
27.34 489
27.36 464
27.38 471
27.4 530
27.42 521
27.44 530
27.46 526
27.48 494
27.5 551
27.52 489
27.54 513
27.56 523
27.58 528
27.6 528
27.62 512
27.64 522
27.66 530
27.68 553
27.7 530
27.72 509
27.74 530
27.76 499
27.78 497
27.8 487
27.82 493
27.84 534
27.86 497
27.88 516
27.9 519
27.92 547
27.94 512
27.96 486
27.98 504
28 518
28.02 521
28.04 491
28.06 466
28.08 520
28.1 461
28.12 547
28.14 496
28.16 526
28.18 508
28.2 472
28.22 514
28.24 503
28.26 497
28.28 479
28.3 560
28.32 494
28.34 540
28.36 475
28.38 529
28.4 493
28.42 559
28.44 479
28.46 473
28.48 490
28.5 478
28.52 477
28.54 471
28.56 524
28.58 532
28.6 476
28.62 502
28.64 464
28.66 478
28.68 479
28.7 474
28.72 538
28.74 478
28.76 508
28.78 493
28.8 548
28.82 463
28.84 496
28.86 523
28.88 459
28.9 533
28.92 519
28.94 483
28.96 520
28.98 525
29 542
29.02 500
29.04 494
29.06 528
29.08 509
29.1 446
29.12 529
29.14 469
29.16 500
29.18 509
29.2 504
29.22 502
29.24 528
29.26 496
29.28 462
29.3 526
29.32 496
29.34 520
29.36 516
29.38 539
29.4 520
29.42 471
29.44 517
29.46 465
29.48 503
29.5 489
29.52 513
29.54 506
29.56 511
29.58 483
29.6 496
29.62 490
29.64 500
29.66 522
29.68 498
29.7 506
29.72 520
29.74 495
29.76 474
29.78 518
29.8 495
29.82 517
29.84 517
29.86 500
29.88 494
29.9 515
29.92 501
29.94 478
29.96 479
29.98 451
30 484
30.02 519
30.04 466
30.06 486
30.08 486
30.1 486
30.12 457
30.14 491
30.16 455
30.18 452
30.2 512
30.22 509
30.24 516
30.26 457
30.28 485
30.3 438
30.32 516
30.34 470
30.36 491
30.38 511
30.4 498
30.42 514
30.44 487
30.46 453
30.48 470
30.5 487
30.52 503
30.54 501
30.56 492
30.58 486
30.6 512
30.62 500
30.64 487
30.66 523
30.68 496
30.7 455
30.72 471
30.74 461
30.76 477
30.78 477
30.8 508
30.82 483
30.84 492
30.86 469
30.88 523
30.9 504
30.92 492
30.94 483
30.96 497
30.98 504
31 460
31.02 539
31.04 482
31.06 519
31.08 499
31.1 493
31.12 476
31.14 453
31.16 459
31.18 499
31.2 507
31.22 465
31.24 464
31.26 463
31.28 451
31.3 457
31.32 474
31.34 454
31.36 443
31.38 491
31.4 493
31.42 458
31.44 473
31.46 479
31.48 438
31.5 489
31.52 474
31.54 500
31.56 448
31.58 477
31.6 469
31.62 492
31.64 466
31.66 469
31.68 447
31.7 484
31.72 431
31.74 442
31.76 465
31.78 445
31.8 434
31.82 423
31.84 485
31.86 478
31.88 436
31.9 443
31.92 462
31.94 437
31.96 465
31.98 437
32 452
32.02 459
32.04 455
32.06 447
32.08 440
32.1 470
32.12 458
32.14 433
32.16 433
32.18 427
32.2 418
32.22 429
32.24 418
32.26 484
32.28 435
32.3 437
32.32 452
32.34 460
32.36 423
32.38 459
32.4 420
32.42 429
32.44 444
32.46 423
32.48 399
32.5 440
32.52 448
32.54 405
32.56 439
32.58 436
32.6 422
32.62 411
32.64 472
32.66 389
32.68 391
32.7 395
32.72 455
32.74 440
32.76 417