File: 研究/Sn/Sn_X線/190306/SnonSi_Kenma#2000_K2SnO3aq_20190122_mid.TXT
Sample SnonSi_å§ñÅÇ†ÇË_SnÇ
Comments medium
Filename C:\WINDMAX\DATA\SHIMANO\XRD20190306\SnonSi_Kenma#2000_K2SnO3aq_20190122_mid.raw
Goniometer TTRáV êÖïΩ∫ﬁ∆µ“∞¿(Tsé≤éËìÆ,ADS)
Attachment ïWèÄééóøŒŸ¿ﬁ∞
Monochromater å≈íË”…∏€“∞¿
ScanningMode 2Theta/Theta
ScanningType Continuos Scanning
X-Ray 40kV/300mA
î≠éUΩÿØƒ 2/3Åã
î≠éUècêßå¿ΩÿØƒ 10mm
éUóêΩÿØƒ 2/3Åã
éÛåıΩÿØƒ 0.3mm
±Ø√»∞¿ äJï˙
”…∏€éÛåıΩÿØƒ 0.8mm
Start 10
Stop 90
Step 0.02
10 168
10.06 126
10.12 156
10.18 150
10.24 188
10.3 168
10.36 156
10.42 174
10.48 157
10.54 143
10.6 152
10.66 160
10.72 165
10.78 136
10.84 157
10.9 165
10.96 158
11.02 141
11.08 170
11.14 129
11.2 158
11.26 140
11.32 141
11.38 158
11.44 145
11.5 130
11.56 142
11.62 155
11.68 158
11.74 143
11.8 147
11.86 137
11.92 151
11.98 152
12.04 136
12.1 130
12.16 149
12.22 145
12.28 144
12.34 156
12.4 137
12.46 157
12.52 132
12.58 142
12.64 147
12.7 166
12.76 141
12.82 144
12.88 159
12.94 145
13 148
13.06 143
13.12 144
13.18 154
13.24 127
13.3 165
13.36 147
13.42 154
13.48 160
13.54 160
13.6 156
13.66 163
13.72 165
13.78 181
13.84 150
13.9 152
13.96 178
14.02 134
14.08 177
14.14 199
14.2 163
14.26 167
14.32 164
14.38 169
14.44 209
14.5 181
14.56 169
14.62 167
14.68 197
14.74 199
14.8 194
14.86 177
14.92 222
14.98 179
15.04 185
15.1 185
15.16 212
15.22 189
15.28 172
15.34 187
15.4 173
15.46 194
15.52 186
15.58 178
15.64 210
15.7 182
15.76 187
15.82 179
15.88 180
15.94 200
16 197
16.06 194
16.12 200
16.18 200
16.24 176
16.3 199
16.36 215
16.42 196
16.48 157
16.54 198
16.6 185
16.66 229
16.72 184
16.78 193
16.84 207
16.9 175
16.96 210
17.02 212
17.08 219
17.14 193
17.2 210
17.26 185
17.32 198
17.38 182
17.44 195
17.5 198
17.56 196
17.62 221
17.68 195
17.74 192
17.8 186
17.86 207
17.92 228
17.98 202
18.04 237
18.1 195
18.16 207
18.22 218
18.28 227
18.34 209
18.4 174
18.46 226
18.52 220
18.58 220
18.64 184
18.7 213
18.76 208
18.82 221
18.88 206
18.94 220
19 201
19.06 218
19.12 245
19.18 217
19.24 215
19.3 214
19.36 212
19.42 227
19.48 244
19.54 239
19.6 250
19.66 216
19.72 245
19.78 234
19.84 272
19.9 202
19.96 237
20.02 267
20.08 254
20.14 258
20.2 268
20.26 260
20.32 235
20.38 275
20.44 239
20.5 235
20.56 287
20.62 264
20.68 274
20.74 269
20.8 248
20.86 273
20.92 239
20.98 298
21.04 266
21.1 285
21.16 293
21.22 301
21.28 294
21.34 299
21.4 314
21.46 348
21.52 299
21.58 342
21.64 321
21.7 306
21.76 340
21.82 350
21.88 331
21.94 360
22 329
22.06 344
22.12 372
22.18 370
22.24 330
22.3 411
22.36 380
22.42 347
22.48 380
22.54 367
22.6 378
22.66 382
22.72 367
22.78 384
22.84 367
22.9 364
22.96 337
23.02 336
23.08 337
23.14 329
23.2 357
23.26 301
23.32 328
23.38 271
23.44 313
23.5 282
23.56 304
23.62 269
23.68 304
23.74 287
23.8 288
23.86 309
23.92 285
23.98 295
24.04 260
24.1 275
24.16 275
24.22 259
24.28 264
24.34 269
24.4 267
24.46 264
24.52 251
24.58 276
24.64 296
24.7 319
24.76 257
24.82 273
24.88 259
24.94 271
25 263
25.06 259
25.12 251
25.18 281
25.24 258
25.3 251
25.36 260
25.42 272
25.48 264
25.54 262
25.6 214
25.66 257
25.72 264
25.78 289
25.84 247
25.9 242
25.96 265
26.02 257
26.08 255
26.14 238
26.2 251
26.26 246
26.32 244
26.38 254
26.44 261
26.5 273
26.56 263
26.62 241
26.68 247
26.74 266
26.8 246
26.86 290
26.92 252
26.98 263
27.04 273
27.1 261
27.16 282
27.22 286
27.28 267
27.34 250
27.4 255
27.46 236
27.52 223
27.58 232
27.64 263
27.7 234
27.76 253
27.82 235
27.88 266
27.94 235
28 252
28.06 240
28.12 264
28.18 237
28.24 258
28.3 230
28.36 281
28.42 273
28.48 244
28.54 256
28.6 272
28.66 240
28.72 289
28.78 230
28.84 241
28.9 229
28.96 245
29.02 253
29.08 262
29.14 235
29.2 272
29.26 239
29.32 250
29.38 230
29.44 226
29.5 265
29.56 239
29.62 253
29.68 245
29.74 266
29.8 243
29.86 238
29.92 226
29.98 227
30.04 240
30.1 229
30.16 248
30.22 235
30.28 231
30.34 222
30.4 263
30.46 242
30.52 339
30.58 700
30.64 581
30.7 408
30.76 268
30.82 269
30.88 253
30.94 223
31 235
31.06 248
31.12 241
31.18 246
31.24 246
31.3 246
31.36 245
31.42 230
31.48 216
31.54 249
31.6 246
31.66 192
31.72 223
31.78 208
31.84 219
31.9 225
31.96 338
32.02 276
32.08 272
32.14 196
32.2 201
32.26 224
32.32 216
32.38 226
32.44 222
32.5 208
32.56 197
32.62 196
32.68 233
32.74 195
32.8 194
32.86 200
32.92 210
32.98 212
33.04 204
33.1 205
33.16 193
33.22 197
33.28 204
33.34 174
33.4 204
33.46 186
33.52 180
33.58 205
33.64 190
33.7 185
33.76 214
33.82 193
33.88 189
33.94 193
34 160
34.06 202
34.12 197
34.18 186
34.24 175
34.3 174
34.36 176
34.42 178
34.48 180
34.54 187
34.6 176
34.66 175
34.72 177
34.78 165
34.84 188
34.9 197
34.96 161
35.02 154
35.08 157
35.14 181
35.2 169
35.26 166
35.32 181
35.38 146
35.44 179
35.5 159
35.56 163
35.62 152
35.68 158
35.74 161
35.8 158
35.86 179
35.92 164
35.98 152
36.04 147
36.1 140
36.16 132
36.22 159
36.28 153
36.34 150
36.4 163
36.46 144
36.52 156
36.58 160
36.64 153
36.7 154
36.76 158
36.82 160
36.88 146
36.94 144
37 152
37.06 135
37.12 146
37.18 130
37.24 168
37.3 137
37.36 135
37.42 153
37.48 125
37.54 142
37.6 145
37.66 154
37.72 128
37.78 153
37.84 126
37.9 125
37.96 141
38.02 137
38.08 154
38.14 134
38.2 122
38.26 130
38.32 134
38.38 123
38.44 147
38.5 146
38.56 146
38.62 149
38.68 129
38.74 123
38.8 131
38.86 121
38.92 114
38.98 124
39.04 134
39.1 131
39.16 120
39.22 149
39.28 137
39.34 132
39.4 136
39.46 143
39.52 136
39.58 126
39.64 112
39.7 139
39.76 132
39.82 138
39.88 128
39.94 138
40 136
40.06 126
40.12 118
40.18 117
40.24 128
40.3 126
40.36 133
40.42 135
40.48 133
40.54 104
40.6 110
40.66 126
40.72 126
40.78 134
40.84 135
40.9 136
40.96 135
41.02 109
41.08 136
41.14 136
41.2 116
41.26 141
41.32 118
41.38 132
41.44 110
41.5 100
41.56 124
41.62 122
41.68 140
41.74 105
41.8 125
41.86 121
41.92 117
41.98 129
42.04 112
42.1 98
42.16 121
42.22 135
42.28 96
42.34 116
42.4 120
42.46 116
42.52 129
42.58 116
42.64 116
42.7 119
42.76 141
42.82 120
42.88 115
42.94 131
43 129
43.06 125
43.12 121
43.18 127
43.24 136
43.3 115
43.36 129
43.42 140
43.48 128
43.54 106
43.6 137
43.66 140
43.72 120
43.78 119
43.84 146
43.9 121
43.96 122
44.02 124
44.08 128
44.14 123
44.2 115
44.26 135
44.32 127
44.38 123
44.44 114
44.5 122
44.56 126
44.62 126
44.68 127
44.74 108
44.8 121
44.86 131
44.92 128
44.98 126
45.04 116
45.1 116
45.16 113
45.22 92
45.28 106
45.34 122
45.4 107
45.46 126
45.52 106
45.58 109
45.64 108
45.7 130
45.76 118
45.82 121
45.88 117
45.94 124
46 119
46.06 135
46.12 125
46.18 111
46.24 113
46.3 131
46.36 118
46.42 128
46.48 99
46.54 119
46.6 117
46.66 97
46.72 108
46.78 106
46.84 124
46.9 108
46.96 113
47.02 105
47.08 110
47.14 104
47.2 112
47.26 100
47.32 103
47.38 83
47.44 107
47.5 108
47.56 102
47.62 120
47.68 111
47.74 142
47.8 104
47.86 117
47.92 117
47.98 108
48.04 105
48.1 104
48.16 111
48.22 108
48.28 91
48.34 121
48.4 111
48.46 133
48.52 123
48.58 98
48.64 106
48.7 116
48.76 111
48.82 116
48.88 129
48.94 99
49 89
49.06 108
49.12 93
49.18 118
49.24 94
49.3 113
49.36 107
49.42 117
49.48 88
49.54 112
49.6 95
49.66 116
49.72 108
49.78 102
49.84 117
49.9 105
49.96 98
50.02 113
50.08 101
50.14 96
50.2 99
50.26 97
50.32 79
50.38 97
50.44 83
50.5 79
50.56 108
50.62 96
50.68 109
50.74 109
50.8 105
50.86 94
50.92 116
50.98 103
51.04 104
51.1 95
51.16 88
51.22 106
51.28 92
51.34 85
51.4 84
51.46 85
51.52 104
51.58 102
51.64 99
51.7 94
51.76 101
51.82 96
51.88 97
51.94 96
52 111
52.06 84
52.12 90
52.18 106
52.24 113
52.3 90
52.36 87
52.42 95
52.48 96
52.54 107
52.6 90
52.66 91
52.72 102
52.78 102
52.84 109
52.9 100
52.96 93
53.02 95
53.08 108
53.14 87
53.2 88
53.26 108
53.32 103
53.38 94
53.44 107
53.5 98
53.56 107
53.62 120
53.68 92
53.74 95
53.8 107
53.86 100
53.92 90
53.98 82
54.04 106
54.1 92
54.16 104
54.22 124
54.28 87
54.34 99
54.4 108
54.46 106
54.52 89
54.58 96
54.64 96
54.7 78
54.76 106
54.82 87
54.88 99
54.94 103
55 91
55.06 89
55.12 88
55.18 106
55.24 97
55.3 102
55.36 100
55.42 114
55.48 106
55.54 101
55.6 89
55.66 100
55.72 95
55.78 87
55.84 109
55.9 101
55.96 97
56.02 96
56.08 69
56.14 118
56.2 106
56.26 100
56.32 91
56.38 113
56.44 106
56.5 91
56.56 84
56.62 98
56.68 105
56.74 81
56.8 95
56.86 106
56.92 93
56.98 100
57.04 86
57.1 99
57.16 99
57.22 102
57.28 102
57.34 71
57.4 98
57.46 88
57.52 97
57.58 97
57.64 100
57.7 85
57.76 103
57.82 101
57.88 88
57.94 90
58 109
58.06 105
58.12 101
58.18 98
58.24 81
58.3 99
58.36 107
58.42 97
58.48 85
58.54 85
58.6 105
58.66 86
58.72 98
58.78 101
58.84 96
58.9 95
58.96 91
59.02 108
59.08 101
59.14 102
59.2 98
59.26 90
59.32 120
59.38 89
59.44 91
59.5 84
59.56 112
59.62 104
59.68 103
59.74 88
59.8 97
59.86 98
59.92 94
59.98 93
60.04 88
60.1 98
60.16 84
60.22 103
60.28 98
60.34 95
60.4 93
60.46 99
60.52 79
60.58 91
60.64 93
60.7 96
60.76 93
60.82 104
60.88 92
60.94 88
61 101
61.06 95
61.12 85
61.18 88
61.24 100
61.3 86
61.36 91
61.42 91
61.48 118
61.54 102
61.6 92
61.66 94
61.72 93
61.78 109
61.84 94
61.9 104
61.96 93
62.02 94
62.08 78
62.14 95
62.2 100
62.26 81
62.32 79
62.38 102
62.44 85
62.5 115
62.56 95
62.62 112
62.68 105
62.74 101
62.8 98
62.86 95
62.92 102
62.98 100
63.04 122
63.1 116
63.16 108
63.22 93
63.28 89
63.34 99
63.4 86
63.46 111
63.52 88
63.58 100
63.64 105
63.7 128
63.76 116
63.82 91
63.88 121
63.94 114
64 85
64.06 100
64.12 86
64.18 90
64.24 109
64.3 86
64.36 96
64.42 108
64.48 102
64.54 108
64.6 98
64.66 114
64.72 94
64.78 92
64.84 77
64.9 101
64.96 98
65.02 109
65.08 88
65.14 95
65.2 86
65.26 87
65.32 89
65.38 81
65.44 97
65.5 106
65.56 101
65.62 108
65.68 75
65.74 108
65.8 96
65.86 104
65.92 99
65.98 93
66.04 123
66.1 106
66.16 98
66.22 114
66.28 117
66.34 109
66.4 101
66.46 103
66.52 93
66.58 113
66.64 101
66.7 100
66.76 99
66.82 120
66.88 108
66.94 121
67 116
67.06 105
67.12 141
67.18 110
67.24 146
67.3 126
67.36 129
67.42 134
67.48 114
67.54 147
67.6 164
67.66 168
67.72 202
67.78 215
67.84 235
67.9 269
67.96 265
68.02 310
68.08 379
68.14 461
68.2 470
68.26 570
68.32 567
68.38 668
68.44 756
68.5 938
68.56 1026
68.62 1471
68.68 2312
68.74 3577
68.8 3896
68.86 4065
68.92 6409
68.98 17049
69.04 115110
69.1 0
69.16 53117
69.22 42702
69.28 0
69.34 59297
69.4 10917
69.46 5741
69.52 3819
69.58 2844
69.64 2291
69.7 1806
69.76 1481
69.82 1183
69.88 1173
69.94 956
70 927
70.06 889
70.12 813
70.18 764
70.24 686
70.3 611
70.36 596
70.42 574
70.48 543
70.54 495
70.6 489
70.66 425
70.72 396
70.78 400
70.84 394
70.9 383
70.96 298
71.02 303
71.08 274
71.14 296
71.2 245
71.26 216
71.32 205
71.38 208
71.44 192
71.5 168
71.56 168
71.62 148
71.68 141
71.74 148
71.8 131
71.86 111
71.92 128
71.98 114
72.04 111
72.1 111
72.16 117
72.22 116
72.28 109
72.34 115
72.4 99
72.46 79
72.52 76
72.58 85
72.64 102
72.7 105
72.76 81
72.82 87
72.88 97
72.94 90
73 92
73.06 86
73.12 94
73.18 84
73.24 80
73.3 91
73.36 92
73.42 85
73.48 66
73.54 76
73.6 77
73.66 68
73.72 73
73.78 74
73.84 82
73.9 88
73.96 87
74.02 82
74.08 70
74.14 74
74.2 94
74.26 68
74.32 84
74.38 55
74.44 73
74.5 86
74.56 86
74.62 67
74.68 78
74.74 66
74.8 80
74.86 86
74.92 85
74.98 74
75.04 74
75.1 77
75.16 67
75.22 71
75.28 75
75.34 64
75.4 78
75.46 70
75.52 69
75.58 63
75.64 71
75.7 59
75.76 87
75.82 58
75.88 76
75.94 54
76 57
76.06 92
76.12 70
76.18 70
76.24 76
76.3 81
76.36 72
76.42 61
76.48 70
76.54 68
76.6 63
76.66 74
76.72 60
76.78 74
76.84 56
76.9 66
76.96 74
77.02 70
77.08 64
77.14 63
77.2 72
77.26 87
77.32 61
77.38 55
77.44 67
77.5 56
77.56 64
77.62 69
77.68 68
77.74 63
77.8 91
77.86 64
77.92 77
77.98 61
78.04 62
78.1 67
78.16 56
78.22 64
78.28 60
78.34 60
78.4 59
78.46 70
78.52 68
78.58 66
78.64 61
78.7 73
78.76 71
78.82 64
78.88 76
78.94 73
79 64
79.06 68
79.12 65
79.18 57
79.24 67
79.3 63
79.36 60
79.42 77
79.48 57
79.54 71
79.6 63
79.66 63
79.72 62
79.78 71
79.84 77
79.9 60
79.96 52
80.02 59
80.08 63
80.14 52
80.2 63
80.26 53
80.32 59
80.38 66
80.44 66
80.5 65
80.56 51
80.62 49
80.68 63
80.74 59
80.8 56
80.86 51
80.92 67
80.98 53
81.04 55
81.1 57
81.16 64
81.22 46
81.28 61
81.34 43
81.4 61
81.46 71
81.52 60
81.58 51
81.64 39
81.7 52
81.76 59
81.82 60
81.88 72
81.94 62
82 67
82.06 66
82.12 65
82.18 49
82.24 58
82.3 51
82.36 67
82.42 51
82.48 58
82.54 51
82.6 60
82.66 50
82.72 55
82.78 49
82.84 61
82.9 50
82.96 50
83.02 63
83.08 59
83.14 52
83.2 60
83.26 66
83.32 65
83.38 61
83.44 59
83.5 59
83.56 61
83.62 51
83.68 60
83.74 51
83.8 60
83.86 57
83.92 51
83.98 41
84.04 48
84.1 78
84.16 54
84.22 45
84.28 47
84.34 50
84.4 57
84.46 51
84.52 56
84.58 69
84.64 53
84.7 56
84.76 54
84.82 48
84.88 54
84.94 48
85 65
85.06 55
85.12 65
85.18 58
85.24 63
85.3 52
85.36 54
85.42 40
85.48 53
85.54 45
85.6 55
85.66 58
85.72 67
85.78 52
85.84 47
85.9 55
85.96 48
86.02 62
86.08 34
86.14 61
86.2 54
86.26 55
86.32 50
86.38 60
86.44 58
86.5 53
86.56 48
86.62 53
86.68 63
86.74 50
86.8 56
86.86 64
86.92 58
86.98 49
87.04 36
87.1 54
87.16 53
87.22 48
87.28 41
87.34 47
87.4 46
87.46 44
87.52 53
87.58 59
87.64 43
87.7 54
87.76 65
87.82 45
87.88 49
87.94 56
88 46
88.06 52
88.12 68
88.18 56
88.24 46
88.3 42
88.36 39
88.42 51
88.48 55
88.54 48
88.6 38
88.66 58
88.72 40
88.78 59
88.84 48
88.9 49
88.96 49
89.02 51
89.08 49
89.14 38
89.2 50
89.26 52
89.32 53
89.38 57
89.44 44
89.5 45
89.56 49
89.62 55
89.68 50
89.74 38
89.8 43
89.86 40
89.92 50
89.98 49
90 55