File: 研究/Sn/Sn_X線/190306/SnonGe-No-Kenma-K2SnO3aq_20190122_mid.TXT
Sample SnonGe-å§ñÅÇ»Çµ-SnÇ
Comments medium
Filename C:\WINDMAX\DATA\SHIMANO\XRD20190306\SnonGe-No-Kenma-K2SnO3aq_20190122_mid.raw
Goniometer TTRáV êÖïΩ∫ﬁ∆µ“∞¿(Tsé≤éËìÆ,ADS)
Attachment ïWèÄééóøŒŸ¿ﬁ∞
Monochromater å≈íË”…∏€“∞¿
ScanningMode 2Theta/Theta
ScanningType Continuos Scanning
X-Ray 40kV/300mA
î≠éUΩÿØƒ 2/3Åã
î≠éUècêßå¿ΩÿØƒ 10mm
éUóêΩÿØƒ 2/3Åã
éÛåıΩÿØƒ 0.3mm
±Ø√»∞¿ äJï˙
”…∏€éÛåıΩÿØƒ 0.8mm
Start 10
Stop 90
Step 0.02
10 148
10.06 136
10.12 149
10.18 146
10.24 132
10.3 132
10.36 126
10.42 150
10.48 154
10.54 135
10.6 140
10.66 138
10.72 134
10.78 107
10.84 97
10.9 140
10.96 130
11.02 137
11.08 110
11.14 126
11.2 119
11.26 139
11.32 131
11.38 133
11.44 128
11.5 113
11.56 117
11.62 134
11.68 138
11.74 140
11.8 121
11.86 153
11.92 114
11.98 131
12.04 131
12.1 120
12.16 123
12.22 156
12.28 122
12.34 118
12.4 142
12.46 134
12.52 121
12.58 137
12.64 131
12.7 103
12.76 155
12.82 109
12.88 120
12.94 140
13 152
13.06 121
13.12 113
13.18 138
13.24 133
13.3 151
13.36 112
13.42 136
13.48 133
13.54 122
13.6 139
13.66 120
13.72 164
13.78 131
13.84 131
13.9 137
13.96 137
14.02 148
14.08 139
14.14 138
14.2 155
14.26 149
14.32 155
14.38 142
14.44 153
14.5 130
14.56 131
14.62 126
14.68 156
14.74 154
14.8 129
14.86 148
14.92 135
14.98 145
15.04 143
15.1 163
15.16 168
15.22 154
15.28 123
15.34 156
15.4 151
15.46 125
15.52 164
15.58 151
15.64 147
15.7 144
15.76 159
15.82 141
15.88 146
15.94 140
16 155
16.06 138
16.12 163
16.18 172
16.24 144
16.3 152
16.36 164
16.42 163
16.48 153
16.54 147
16.6 161
16.66 151
16.72 161
16.78 148
16.84 141
16.9 162
16.96 164
17.02 153
17.08 167
17.14 166
17.2 168
17.26 173
17.32 136
17.38 148
17.44 145
17.5 167
17.56 139
17.62 147
17.68 157
17.74 153
17.8 155
17.86 144
17.92 160
17.98 149
18.04 153
18.1 152
18.16 156
18.22 142
18.28 156
18.34 162
18.4 162
18.46 174
18.52 165
18.58 148
18.64 172
18.7 169
18.76 159
18.82 163
18.88 155
18.94 164
19 161
19.06 156
19.12 177
19.18 151
19.24 184
19.3 162
19.36 176
19.42 158
19.48 186
19.54 170
19.6 195
19.66 181
19.72 198
19.78 183
19.84 171
19.9 163
19.96 169
20.02 189
20.08 183
20.14 181
20.2 179
20.26 179
20.32 196
20.38 166
20.44 173
20.5 188
20.56 208
20.62 171
20.68 181
20.74 188
20.8 166
20.86 185
20.92 201
20.98 200
21.04 207
21.1 215
21.16 206
21.22 210
21.28 184
21.34 196
21.4 198
21.46 214
21.52 226
21.58 230
21.64 215
21.7 252
21.76 239
21.82 241
21.88 239
21.94 251
22 297
22.06 263
22.12 274
22.18 275
22.24 287
22.3 266
22.36 258
22.42 246
22.48 253
22.54 271
22.6 265
22.66 260
22.72 274
22.78 252
22.84 250
22.9 264
22.96 257
23.02 260
23.08 209
23.14 257
23.2 219
23.26 231
23.32 222
23.38 233
23.44 234
23.5 224
23.56 195
23.62 195
23.68 213
23.74 193
23.8 219
23.86 201
23.92 223
23.98 190
24.04 222
24.1 216
24.16 202
24.22 210
24.28 206
24.34 197
24.4 213
24.46 204
24.52 217
24.58 220
24.64 197
24.7 198
24.76 220
24.82 189
24.88 208
24.94 183
25 186
25.06 199
25.12 211
25.18 220
25.24 200
25.3 182
25.36 176
25.42 206
25.48 238
25.54 162
25.6 190
25.66 202
25.72 196
25.78 210
25.84 185
25.9 195
25.96 210
26.02 208
26.08 207
26.14 195
26.2 197
26.26 194
26.32 202
26.38 210
26.44 180
26.5 212
26.56 198
26.62 203
26.68 204
26.74 198
26.8 220
26.86 215
26.92 222
26.98 184
27.04 180
27.1 223
27.16 204
27.22 218
27.28 201
27.34 209
27.4 208
27.46 231
27.52 221
27.58 197
27.64 205
27.7 203
27.76 204
27.82 182
27.88 193
27.94 203
28 197
28.06 205
28.12 201
28.18 192
28.24 198
28.3 195
28.36 192
28.42 206
28.48 199
28.54 188
28.6 197
28.66 192
28.72 192
28.78 219
28.84 185
28.9 190
28.96 208
29.02 199
29.08 211
29.14 212
29.2 183
29.26 196
29.32 238
29.38 175
29.44 217
29.5 218
29.56 193
29.62 214
29.68 172
29.74 164
29.8 198
29.86 202
29.92 192
29.98 167
30.04 203
30.1 204
30.16 199
30.22 219
30.28 187
30.34 201
30.4 170
30.46 196
30.52 217
30.58 184
30.64 186
30.7 179
30.76 194
30.82 183
30.88 189
30.94 204
31 201
31.06 199
31.12 166
31.18 166
31.24 207
31.3 220
31.36 181
31.42 191
31.48 162
31.54 163
31.6 163
31.66 186
31.72 181
31.78 170
31.84 181
31.9 173
31.96 186
32.02 177
32.08 175
32.14 187
32.2 185
32.26 184
32.32 179
32.38 155
32.44 195
32.5 179
32.56 174
32.62 196
32.68 173
32.74 190
32.8 187
32.86 206
32.92 173
32.98 178
33.04 181
33.1 171
33.16 171
33.22 181
33.28 177
33.34 184
33.4 164
33.46 173
33.52 175
33.58 170
33.64 178
33.7 176
33.76 170
33.82 183
33.88 171
33.94 181
34 188
34.06 156
34.12 176
34.18 157
34.24 163
34.3 181
34.36 151
34.42 156
34.48 178
34.54 149
34.6 152
34.66 163
34.72 165
34.78 166
34.84 175
34.9 155
34.96 143
35.02 156
35.08 172
35.14 153
35.2 157
35.26 159
35.32 135
35.38 166
35.44 155
35.5 147
35.56 139
35.62 151
35.68 128
35.74 157
35.8 140
35.86 165
35.92 114
35.98 120
36.04 141
36.1 139
36.16 133
36.22 143
36.28 129
36.34 133
36.4 127
36.46 117
36.52 115
36.58 142
36.64 133
36.7 136
36.76 121
36.82 126
36.88 130
36.94 150
37 133
37.06 120
37.12 117
37.18 130
37.24 112
37.3 112
37.36 136
37.42 107
37.48 120
37.54 136
37.6 115
37.66 106
37.72 120
37.78 137
37.84 127
37.9 117
37.96 137
38.02 109
38.08 121
38.14 120
38.2 122
38.26 139
38.32 115
38.38 122
38.44 130
38.5 122
38.56 95
38.62 122
38.68 129
38.74 104
38.8 124
38.86 115
38.92 106
38.98 128
39.04 104
39.1 111
39.16 122
39.22 100
39.28 113
39.34 125
39.4 120
39.46 118
39.52 110
39.58 118
39.64 89
39.7 117
39.76 109
39.82 100
39.88 103
39.94 102
40 128
40.06 119
40.12 118
40.18 114
40.24 116
40.3 103
40.36 131
40.42 121
40.48 122
40.54 117
40.6 113
40.66 117
40.72 112
40.78 122
40.84 108
40.9 105
40.96 123
41.02 123
41.08 124
41.14 115
41.2 92
41.26 131
41.32 109
41.38 106
41.44 111
41.5 113
41.56 96
41.62 118
41.68 114
41.74 119
41.8 117
41.86 101
41.92 118
41.98 127
42.04 114
42.1 138
42.16 111
42.22 118
42.28 123
42.34 115
42.4 134
42.46 126
42.52 124
42.58 101
42.64 111
42.7 108
42.76 93
42.82 133
42.88 113
42.94 107
43 119
43.06 117
43.12 112
43.18 106
43.24 110
43.3 109
43.36 117
43.42 137
43.48 99
43.54 133
43.6 120
43.66 105
43.72 122
43.78 122
43.84 121
43.9 106
43.96 122
44.02 103
44.08 109
44.14 105
44.2 114
44.26 105
44.32 108
44.38 114
44.44 104
44.5 129
44.56 100
44.62 93
44.68 115
44.74 102
44.8 139
44.86 112
44.92 98
44.98 124
45.04 107
45.1 127
45.16 137
45.22 132
45.28 145
45.34 118
45.4 143
45.46 124
45.52 120
45.58 114
45.64 109
45.7 126
45.76 113
45.82 94
45.88 107
45.94 113
46 104
46.06 100
46.12 97
46.18 125
46.24 91
46.3 106
46.36 99
46.42 123
46.48 124
46.54 115
46.6 113
46.66 92
46.72 107
46.78 92
46.84 95
46.9 107
46.96 95
47.02 98
47.08 111
47.14 107
47.2 97
47.26 103
47.32 83
47.38 101
47.44 121
47.5 99
47.56 108
47.62 97
47.68 104
47.74 101
47.8 95
47.86 114
47.92 90
47.98 91
48.04 107
48.1 112
48.16 107
48.22 119
48.28 85
48.34 115
48.4 101
48.46 108
48.52 108
48.58 88
48.64 111
48.7 76
48.76 113
48.82 94
48.88 118
48.94 92
49 104
49.06 78
49.12 104
49.18 98
49.24 106
49.3 95
49.36 84
49.42 97
49.48 99
49.54 105
49.6 67
49.66 109
49.72 90
49.78 105
49.84 86
49.9 106
49.96 90
50.02 93
50.08 102
50.14 95
50.2 91
50.26 117
50.32 88
50.38 89
50.44 118
50.5 92
50.56 105
50.62 105
50.68 103
50.74 73
50.8 83
50.86 97
50.92 105
50.98 91
51.04 94
51.1 88
51.16 95
51.22 98
51.28 82
51.34 110
51.4 104
51.46 91
51.52 86
51.58 84
51.64 95
51.7 90
51.76 110
51.82 95
51.88 94
51.94 90
52 107
52.06 96
52.12 95
52.18 103
52.24 90
52.3 110
52.36 107
52.42 96
52.48 102
52.54 98
52.6 101
52.66 95
52.72 104
52.78 99
52.84 117
52.9 110
52.96 92
53.02 115
53.08 80
53.14 117
53.2 95
53.26 93
53.32 103
53.38 103
53.44 95
53.5 82
53.56 109
53.62 111
53.68 100
53.74 112
53.8 95
53.86 91
53.92 91
53.98 94
54.04 94
54.1 110
54.16 96
54.22 115
54.28 87
54.34 110
54.4 90
54.46 95
54.52 108
54.58 101
54.64 93
54.7 99
54.76 80
54.82 99
54.88 112
54.94 92
55 90
55.06 103
55.12 76
55.18 81
55.24 108
55.3 91
55.36 70
55.42 102
55.48 105
55.54 104
55.6 94
55.66 102
55.72 105
55.78 96
55.84 73
55.9 115
55.96 87
56.02 97
56.08 91
56.14 86
56.2 94
56.26 99
56.32 81
56.38 96
56.44 77
56.5 95
56.56 85
56.62 100
56.68 97
56.74 88
56.8 84
56.86 91
56.92 96
56.98 87
57.04 94
57.1 109
57.16 96
57.22 86
57.28 90
57.34 95
57.4 87
57.46 97
57.52 90
57.58 88
57.64 88
57.7 97
57.76 84
57.82 106
57.88 95
57.94 98
58 97
58.06 94
58.12 80
58.18 83
58.24 81
58.3 93
58.36 81
58.42 75
58.48 90
58.54 76
58.6 80
58.66 89
58.72 90
58.78 82
58.84 96
58.9 81
58.96 80
59.02 92
59.08 84
59.14 85
59.2 83
59.26 81
59.32 87
59.38 92
59.44 64
59.5 88
59.56 80
59.62 104
59.68 84
59.74 101
59.8 69
59.86 83
59.92 100
59.98 88
60.04 75
60.1 98
60.16 88
60.22 91
60.28 82
60.34 97
60.4 87
60.46 87
60.52 85
60.58 87
60.64 107
60.7 94
60.76 80
60.82 86
60.88 80
60.94 87
61 93
61.06 90
61.12 85
61.18 95
61.24 94
61.3 95
61.36 89
61.42 88
61.48 84
61.54 95
61.6 83
61.66 78
61.72 78
61.78 87
61.84 80
61.9 83
61.96 90
62.02 88
62.08 81
62.14 89
62.2 88
62.26 79
62.32 94
62.38 88
62.44 94
62.5 91
62.56 80
62.62 95
62.68 83
62.74 57
62.8 104
62.86 91
62.92 88
62.98 82
63.04 76
63.1 86
63.16 99
63.22 95
63.28 71
63.34 79
63.4 80
63.46 82
63.52 88
63.58 89
63.64 83
63.7 106
63.76 88
63.82 99
63.88 79
63.94 85
64 79
64.06 94
64.12 91
64.18 93
64.24 77
64.3 72
64.36 72
64.42 80
64.48 87
64.54 75
64.6 77
64.66 79
64.72 101
64.78 80
64.84 78
64.9 98
64.96 82
65.02 101
65.08 78
65.14 78
65.2 101
65.26 89
65.32 79
65.38 83
65.44 79
65.5 79
65.56 100
65.62 82
65.68 84
65.74 78
65.8 67
65.86 94
65.92 82
65.98 94
66.04 82
66.1 76
66.16 80
66.22 83
66.28 80
66.34 85
66.4 91
66.46 76
66.52 73
66.58 77
66.64 77
66.7 97
66.76 92
66.82 79
66.88 77
66.94 76
67 81
67.06 71
67.12 89
67.18 83
67.24 76
67.3 77
67.36 81
67.42 89
67.48 86
67.54 74
67.6 89
67.66 85
67.72 92
67.78 82
67.84 79
67.9 70
67.96 79
68.02 74
68.08 74
68.14 81
68.2 71
68.26 84
68.32 89
68.38 80
68.44 82
68.5 54
68.56 84
68.62 68
68.68 78
68.74 89
68.8 87
68.86 80
68.92 68
68.98 83
69.04 73
69.1 79
69.16 69
69.22 84
69.28 80
69.34 77
69.4 61
69.46 75
69.52 78
69.58 78
69.64 103
69.7 72
69.76 82
69.82 71
69.88 72
69.94 74
70 88
70.06 60
70.12 78
70.18 98
70.24 70
70.3 60
70.36 76
70.42 80
70.48 77
70.54 54
70.6 74
70.66 72
70.72 68
70.78 69
70.84 74
70.9 69
70.96 90
71.02 65
71.08 64
71.14 69
71.2 80
71.26 79
71.32 86
71.38 68
71.44 91
71.5 82
71.56 83
71.62 85
71.68 71
71.74 86
71.8 80
71.86 80
71.92 76
71.98 65
72.04 85
72.1 69
72.16 77
72.22 67
72.28 92
72.34 63
72.4 90
72.46 62
72.52 74
72.58 67
72.64 61
72.7 65
72.76 73
72.82 77
72.88 82
72.94 74
73 67
73.06 59
73.12 80
73.18 60
73.24 72
73.3 83
73.36 72
73.42 75
73.48 77
73.54 59
73.6 77
73.66 69
73.72 78
73.78 80
73.84 61
73.9 62
73.96 67
74.02 53
74.08 67
74.14 64
74.2 64
74.26 61
74.32 69
74.38 74
74.44 50
74.5 80
74.56 75
74.62 70
74.68 72
74.74 66
74.8 73
74.86 56
74.92 70
74.98 61
75.04 62
75.1 58
75.16 63
75.22 75
75.28 64
75.34 76
75.4 70
75.46 68
75.52 60
75.58 58
75.64 71
75.7 68
75.76 67
75.82 64
75.88 60
75.94 67
76 72
76.06 61
76.12 76
76.18 63
76.24 59
76.3 73
76.36 65
76.42 66
76.48 61
76.54 61
76.6 68
76.66 82
76.72 71
76.78 71
76.84 59
76.9 56
76.96 81
77.02 70
77.08 67
77.14 65
77.2 69
77.26 67
77.32 78
77.38 62
77.44 73
77.5 62
77.56 53
77.62 51
77.68 55
77.74 77
77.8 70
77.86 71
77.92 64
77.98 71
78.04 73
78.1 78
78.16 76
78.22 66
78.28 75
78.34 80
78.4 59
78.46 65
78.52 52
78.58 52
78.64 62
78.7 70
78.76 70
78.82 63
78.88 56
78.94 69
79 79
79.06 79
79.12 64
79.18 66
79.24 69
79.3 65
79.36 54
79.42 62
79.48 68
79.54 77
79.6 76
79.66 74
79.72 67
79.78 63
79.84 67
79.9 69
79.96 76
80.02 86
80.08 57
80.14 66
80.2 66
80.26 59
80.32 67
80.38 64
80.44 67
80.5 59
80.56 57
80.62 68
80.68 67
80.74 58
80.8 77
80.86 60
80.92 63
80.98 74
81.04 61
81.1 72
81.16 58
81.22 82
81.28 66
81.34 57
81.4 64
81.46 69
81.52 59
81.58 64
81.64 53
81.7 62
81.76 64
81.82 59
81.88 52
81.94 58
82 58
82.06 50
82.12 66
82.18 59
82.24 60
82.3 75
82.36 51
82.42 72
82.48 59
82.54 63
82.6 59
82.66 74
82.72 54
82.78 57
82.84 62
82.9 58
82.96 60
83.02 55
83.08 57
83.14 67
83.2 62
83.26 58
83.32 48
83.38 71
83.44 57
83.5 58
83.56 66
83.62 67
83.68 64
83.74 54
83.8 53
83.86 58
83.92 52
83.98 58
84.04 82
84.1 53
84.16 53
84.22 64
84.28 64
84.34 58
84.4 33
84.46 52
84.52 64
84.58 77
84.64 58
84.7 66
84.76 59
84.82 67
84.88 57
84.94 61
85 58
85.06 57
85.12 54
85.18 54
85.24 55
85.3 59
85.36 62
85.42 58
85.48 74
85.54 53
85.6 59
85.66 55
85.72 79
85.78 61
85.84 56
85.9 44
85.96 46
86.02 50
86.08 54
86.14 49
86.2 49
86.26 52
86.32 68
86.38 55
86.44 54
86.5 53
86.56 53
86.62 47
86.68 57
86.74 63
86.8 52
86.86 59
86.92 47
86.98 55
87.04 46
87.1 54
87.16 44
87.22 56
87.28 55
87.34 50
87.4 51
87.46 41
87.52 54
87.58 52
87.64 69
87.7 47
87.76 55
87.82 46
87.88 63
87.94 46
88 50
88.06 53
88.12 60
88.18 51
88.24 55
88.3 57
88.36 69
88.42 53
88.48 62
88.54 64
88.6 46
88.66 46
88.72 67
88.78 49
88.84 64
88.9 49
88.96 73
89.02 58
89.08 51
89.14 49
89.2 59
89.26 49
89.32 57
89.38 48
89.44 44
89.5 39
89.56 57
89.62 55
89.68 55
89.74 48
89.8 55
89.86 53
89.92 53
89.98 63
90 59