File: 研究/Sn/Sn_X線/190306/SnonSi_No-Kenma_K2SnO3aq_20190122_mid.TXT
Sample SnonSi_å§ñÅÇ»Çµ_SnÇ
Comments medium
Filename C:\WINDMAX\DATA\SHIMANO\XRD20190306\SnonSi_No-Kenma_K2SnO3aq_20190122_mid.raw
Goniometer TTRáV êÖïΩ∫ﬁ∆µ“∞¿(Tsé≤éËìÆ,ADS)
Attachment ïWèÄééóøŒŸ¿ﬁ∞
Monochromater å≈íË”…∏€“∞¿
ScanningMode 2Theta/Theta
ScanningType Continuos Scanning
X-Ray 40kV/300mA
î≠éUΩÿØƒ 2/3Åã
î≠éUècêßå¿ΩÿØƒ 10mm
éUóêΩÿØƒ 2/3Åã
éÛåıΩÿØƒ 0.3mm
±Ø√»∞¿ äJï˙
”…∏€éÛåıΩÿØƒ 0.8mm
Start 10
Stop 90
Step 0.02
10 142
10.06 158
10.12 113
10.18 137
10.24 129
10.3 135
10.36 173
10.42 134
10.48 125
10.54 142
10.6 144
10.66 148
10.72 144
10.78 141
10.84 128
10.9 142
10.96 133
11.02 128
11.08 123
11.14 138
11.2 123
11.26 123
11.32 104
11.38 138
11.44 134
11.5 102
11.56 111
11.62 121
11.68 160
11.74 140
11.8 128
11.86 130
11.92 109
11.98 128
12.04 128
12.1 120
12.16 122
12.22 112
12.28 104
12.34 131
12.4 118
12.46 124
12.52 104
12.58 124
12.64 122
12.7 129
12.76 109
12.82 118
12.88 106
12.94 122
13 129
13.06 132
13.12 129
13.18 101
13.24 129
13.3 125
13.36 120
13.42 143
13.48 131
13.54 134
13.6 133
13.66 132
13.72 125
13.78 126
13.84 119
13.9 131
13.96 135
14.02 117
14.08 136
14.14 130
14.2 122
14.26 134
14.32 127
14.38 123
14.44 127
14.5 143
14.56 131
14.62 119
14.68 142
14.74 139
14.8 126
14.86 129
14.92 130
14.98 135
15.04 154
15.1 125
15.16 128
15.22 134
15.28 138
15.34 114
15.4 147
15.46 145
15.52 132
15.58 163
15.64 144
15.7 124
15.76 124
15.82 132
15.88 146
15.94 141
16 115
16.06 138
16.12 143
16.18 158
16.24 132
16.3 146
16.36 139
16.42 160
16.48 132
16.54 147
16.6 123
16.66 163
16.72 134
16.78 132
16.84 145
16.9 150
16.96 142
17.02 164
17.08 130
17.14 142
17.2 138
17.26 139
17.32 135
17.38 139
17.44 129
17.5 125
17.56 149
17.62 125
17.68 136
17.74 145
17.8 125
17.86 145
17.92 136
17.98 166
18.04 126
18.1 156
18.16 167
18.22 128
18.28 136
18.34 156
18.4 154
18.46 132
18.52 137
18.58 152
18.64 150
18.7 141
18.76 144
18.82 142
18.88 129
18.94 165
19 122
19.06 167
19.12 136
19.18 147
19.24 148
19.3 138
19.36 162
19.42 150
19.48 157
19.54 160
19.6 137
19.66 160
19.72 137
19.78 188
19.84 175
19.9 178
19.96 183
20.02 176
20.08 147
20.14 167
20.2 187
20.26 158
20.32 178
20.38 158
20.44 164
20.5 160
20.56 164
20.62 149
20.68 168
20.74 174
20.8 173
20.86 170
20.92 163
20.98 176
21.04 172
21.1 166
21.16 165
21.22 182
21.28 180
21.34 164
21.4 199
21.46 183
21.52 187
21.58 189
21.64 186
21.7 216
21.76 201
21.82 210
21.88 179
21.94 205
22 226
22.06 213
22.12 214
22.18 208
22.24 221
22.3 191
22.36 233
22.42 227
22.48 234
22.54 220
22.6 220
22.66 228
22.72 205
22.78 208
22.84 193
22.9 212
22.96 205
23.02 197
23.08 215
23.14 212
23.2 184
23.26 208
23.32 183
23.38 201
23.44 187
23.5 206
23.56 190
23.62 175
23.68 166
23.74 196
23.8 190
23.86 207
23.92 177
23.98 186
24.04 172
24.1 166
24.16 165
24.22 160
24.28 173
24.34 170
24.4 166
24.46 186
24.52 176
24.58 171
24.64 159
24.7 196
24.76 173
24.82 188
24.88 206
24.94 169
25 157
25.06 173
25.12 188
25.18 166
25.24 183
25.3 177
25.36 183
25.42 162
25.48 161
25.54 152
25.6 171
25.66 163
25.72 166
25.78 192
25.84 168
25.9 166
25.96 177
26.02 159
26.08 172
26.14 182
26.2 174
26.26 161
26.32 182
26.38 173
26.44 174
26.5 159
26.56 167
26.62 171
26.68 192
26.74 173
26.8 184
26.86 192
26.92 148
26.98 173
27.04 177
27.1 151
27.16 158
27.22 172
27.28 168
27.34 169
27.4 196
27.46 194
27.52 193
27.58 198
27.64 179
27.7 183
27.76 166
27.82 168
27.88 174
27.94 168
28 185
28.06 199
28.12 171
28.18 183
28.24 180
28.3 178
28.36 174
28.42 190
28.48 160
28.54 157
28.6 174
28.66 165
28.72 162
28.78 152
28.84 170
28.9 167
28.96 163
29.02 148
29.08 178
29.14 150
29.2 178
29.26 157
29.32 184
29.38 203
29.44 158
29.5 161
29.56 178
29.62 161
29.68 151
29.74 152
29.8 179
29.86 176
29.92 159
29.98 161
30.04 176
30.1 173
30.16 155
30.22 169
30.28 159
30.34 150
30.4 194
30.46 164
30.52 192
30.58 162
30.64 179
30.7 172
30.76 160
30.82 178
30.88 168
30.94 172
31 178
31.06 160
31.12 172
31.18 159
31.24 144
31.3 164
31.36 165
31.42 165
31.48 177
31.54 169
31.6 170
31.66 151
31.72 180
31.78 153
31.84 162
31.9 154
31.96 172
32.02 137
32.08 166
32.14 156
32.2 142
32.26 173
32.32 159
32.38 163
32.44 161
32.5 173
32.56 154
32.62 163
32.68 153
32.74 188
32.8 141
32.86 169
32.92 168
32.98 146
33.04 158
33.1 170
33.16 151
33.22 138
33.28 143
33.34 154
33.4 152
33.46 152
33.52 156
33.58 166
33.64 151
33.7 144
33.76 151
33.82 176
33.88 152
33.94 146
34 138
34.06 162
34.12 142
34.18 145
34.24 137
34.3 157
34.36 162
34.42 127
34.48 147
34.54 142
34.6 167
34.66 131
34.72 151
34.78 163
34.84 133
34.9 141
34.96 130
35.02 128
35.08 156
35.14 128
35.2 131
35.26 121
35.32 140
35.38 144
35.44 126
35.5 137
35.56 126
35.62 143
35.68 124
35.74 121
35.8 123
35.86 140
35.92 143
35.98 118
36.04 102
36.1 136
36.16 124
36.22 137
36.28 108
36.34 137
36.4 107
36.46 119
36.52 117
36.58 135
36.64 139
36.7 126
36.76 114
36.82 118
36.88 96
36.94 125
37 141
37.06 96
37.12 106
37.18 123
37.24 121
37.3 111
37.36 117
37.42 96
37.48 120
37.54 106
37.6 121
37.66 101
37.72 115
37.78 103
37.84 113
37.9 107
37.96 111
38.02 83
38.08 98
38.14 117
38.2 96
38.26 99
38.32 119
38.38 115
38.44 105
38.5 93
38.56 86
38.62 101
38.68 106
38.74 91
38.8 103
38.86 102
38.92 91
38.98 120
39.04 90
39.1 102
39.16 107
39.22 105
39.28 99
39.34 107
39.4 98
39.46 104
39.52 97
39.58 100
39.64 107
39.7 86
39.76 96
39.82 116
39.88 110
39.94 102
40 101
40.06 98
40.12 95
40.18 90
40.24 102
40.3 95
40.36 98
40.42 120
40.48 102
40.54 123
40.6 107
40.66 89
40.72 89
40.78 101
40.84 92
40.9 103
40.96 97
41.02 101
41.08 101
41.14 98
41.2 79
41.26 109
41.32 98
41.38 104
41.44 104
41.5 86
41.56 107
41.62 89
41.68 99
41.74 103
41.8 107
41.86 107
41.92 94
41.98 93
42.04 94
42.1 102
42.16 82
42.22 89
42.28 100
42.34 100
42.4 103
42.46 76
42.52 103
42.58 97
42.64 102
42.7 78
42.76 104
42.82 87
42.88 79
42.94 95
43 83
43.06 91
43.12 86
43.18 74
43.24 95
43.3 88
43.36 99
43.42 83
43.48 107
43.54 96
43.6 84
43.66 97
43.72 102
43.78 81
43.84 101
43.9 95
43.96 95
44.02 89
44.08 99
44.14 87
44.2 96
44.26 90
44.32 77
44.38 100
44.44 90
44.5 81
44.56 98
44.62 97
44.68 75
44.74 86
44.8 104
44.86 102
44.92 101
44.98 103
45.04 93
45.1 71
45.16 89
45.22 92
45.28 102
45.34 87
45.4 85
45.46 84
45.52 78
45.58 94
45.64 77
45.7 95
45.76 85
45.82 99
45.88 83
45.94 90
46 94
46.06 84
46.12 81
46.18 98
46.24 73
46.3 69
46.36 88
46.42 90
46.48 82
46.54 81
46.6 95
46.66 77
46.72 81
46.78 96
46.84 87
46.9 85
46.96 87
47.02 83
47.08 90
47.14 76
47.2 84
47.26 83
47.32 91
47.38 90
47.44 86
47.5 97
47.56 99
47.62 97
47.68 91
47.74 84
47.8 80
47.86 69
47.92 68
47.98 67
48.04 70
48.1 71
48.16 85
48.22 74
48.28 95
48.34 77
48.4 81
48.46 86
48.52 80
48.58 85
48.64 91
48.7 92
48.76 79
48.82 75
48.88 77
48.94 81
49 74
49.06 86
49.12 69
49.18 88
49.24 76
49.3 81
49.36 80
49.42 72
49.48 83
49.54 73
49.6 72
49.66 69
49.72 77
49.78 69
49.84 56
49.9 84
49.96 60
50.02 90
50.08 76
50.14 78
50.2 81
50.26 85
50.32 81
50.38 54
50.44 73
50.5 101
50.56 85
50.62 73
50.68 71
50.74 81
50.8 82
50.86 89
50.92 68
50.98 65
51.04 77
51.1 72
51.16 85
51.22 61
51.28 52
51.34 77
51.4 59
51.46 79
51.52 56
51.58 86
51.64 73
51.7 88
51.76 71
51.82 67
51.88 73
51.94 87
52 68
52.06 64
52.12 87
52.18 73
52.24 81
52.3 73
52.36 73
52.42 64
52.48 85
52.54 66
52.6 83
52.66 74
52.72 95
52.78 73
52.84 75
52.9 80
52.96 89
53.02 52
53.08 83
53.14 54
53.2 68
53.26 69
53.32 74
53.38 66
53.44 81
53.5 72
53.56 69
53.62 89
53.68 68
53.74 70
53.8 66
53.86 83
53.92 64
53.98 78
54.04 66
54.1 76
54.16 68
54.22 74
54.28 75
54.34 74
54.4 87
54.46 75
54.52 74
54.58 77
54.64 74
54.7 80
54.76 62
54.82 75
54.88 67
54.94 85
55 76
55.06 73
55.12 72
55.18 61
55.24 67
55.3 84
55.36 65
55.42 77
55.48 72
55.54 68
55.6 71
55.66 73
55.72 78
55.78 63
55.84 62
55.9 90
55.96 72
56.02 95
56.08 71
56.14 72
56.2 77
56.26 75
56.32 68
56.38 81
56.44 84
56.5 90
56.56 68
56.62 75
56.68 73
56.74 63
56.8 72
56.86 97
56.92 67
56.98 87
57.04 87
57.1 78
57.16 69
57.22 67
57.28 58
57.34 67
57.4 65
57.46 82
57.52 72
57.58 65
57.64 75
57.7 58
57.76 67
57.82 68
57.88 76
57.94 69
58 67
58.06 61
58.12 80
58.18 83
58.24 57
58.3 74
58.36 62
58.42 74
58.48 63
58.54 75
58.6 80
58.66 78
58.72 75
58.78 85
58.84 77
58.9 83
58.96 72
59.02 68
59.08 82
59.14 79
59.2 78
59.26 82
59.32 79
59.38 65
59.44 72
59.5 62
59.56 67
59.62 86
59.68 75
59.74 68
59.8 65
59.86 84
59.92 83
59.98 81
60.04 74
60.1 86
60.16 63
60.22 87
60.28 61
60.34 66
60.4 71
60.46 62
60.52 57
60.58 79
60.64 74
60.7 54
60.76 61
60.82 67
60.88 68
60.94 49
61 76
61.06 69
61.12 75
61.18 70
61.24 75
61.3 90
61.36 77
61.42 67
61.48 69
61.54 91
61.6 78
61.66 102
61.72 82
61.78 68
61.84 74
61.9 48
61.96 79
62.02 65
62.08 75
62.14 81
62.2 72
62.26 57
62.32 74
62.38 63
62.44 91
62.5 88
62.56 67
62.62 76
62.68 69
62.74 71
62.8 74
62.86 66
62.92 80
62.98 91
63.04 72
63.1 70
63.16 68
63.22 74
63.28 70
63.34 76
63.4 66
63.46 66
63.52 75
63.58 79
63.64 82
63.7 77
63.76 85
63.82 68
63.88 68
63.94 86
64 78
64.06 85
64.12 79
64.18 75
64.24 86
64.3 90
64.36 85
64.42 67
64.48 85
64.54 79
64.6 76
64.66 81
64.72 62
64.78 73
64.84 79
64.9 85
64.96 83
65.02 76
65.08 82
65.14 74
65.2 96
65.26 89
65.32 79
65.38 92
65.44 81
65.5 85
65.56 82
65.62 103
65.68 74
65.74 85
65.8 98
65.86 81
65.92 82
65.98 96
66.04 82
66.1 102
66.16 99
66.22 99
66.28 110
66.34 111
66.4 116
66.46 102
66.52 114
66.58 120
66.64 119
66.7 102
66.76 133
66.82 119
66.88 105
66.94 118
67 135
67.06 131
67.12 142
67.18 116
67.24 143
67.3 157
67.36 148
67.42 146
67.48 183
67.54 202
67.6 213
67.66 245
67.72 270
67.78 318
67.84 367
67.9 473
67.96 502
68.02 605
68.08 671
68.14 743
68.2 849
68.26 984
68.32 1125
68.38 1412
68.44 1698
68.5 2031
68.56 2510
68.62 3668
68.68 6385
68.74 8400
68.8 8321
68.86 12350
68.92 31648
68.98 83609
69.04 0
69.1 0
69.16 68931
69.22 0
69.28 0
69.34 44979
69.4 16300
69.46 9682
69.52 7079
69.58 5452
69.64 4256
69.7 3490
69.76 2940
69.82 2675
69.88 2394
69.94 2076
70 1939
70.06 1780
70.12 1731
70.18 1535
70.24 1398
70.3 1291
70.36 1235
70.42 1131
70.48 1072
70.54 960
70.6 935
70.66 783
70.72 840
70.78 735
70.84 686
70.9 632
70.96 623
71.02 551
71.08 503
71.14 476
71.2 393
71.26 331
71.32 322
71.38 280
71.44 248
71.5 260
71.56 247
71.62 177
71.68 185
71.74 180
71.8 151
71.86 143
71.92 142
71.98 138
72.04 118
72.1 118
72.16 123
72.22 92
72.28 104
72.34 92
72.4 108
72.46 68
72.52 84
72.58 105
72.64 85
72.7 87
72.76 102
72.82 68
72.88 80
72.94 84
73 81
73.06 69
73.12 86
73.18 75
73.24 85
73.3 65
73.36 88
73.42 69
73.48 79
73.54 76
73.6 82
73.66 65
73.72 79
73.78 66
73.84 58
73.9 58
73.96 55
74.02 67
74.08 54
74.14 72
74.2 52
74.26 68
74.32 78
74.38 61
74.44 64
74.5 46
74.56 70
74.62 61
74.68 57
74.74 63
74.8 60
74.86 55
74.92 75
74.98 44
75.04 72
75.1 54
75.16 65
75.22 54
75.28 54
75.34 55
75.4 45
75.46 50
75.52 66
75.58 59
75.64 69
75.7 57
75.76 59
75.82 67
75.88 46
75.94 55
76 53
76.06 60
76.12 50
76.18 53
76.24 42
76.3 66
76.36 53
76.42 51
76.48 56
76.54 71
76.6 52
76.66 53
76.72 49
76.78 44
76.84 53
76.9 54
76.96 60
77.02 52
77.08 52
77.14 45
77.2 47
77.26 59
77.32 52
77.38 48
77.44 48
77.5 52
77.56 49
77.62 45
77.68 37
77.74 54
77.8 52
77.86 57
77.92 62
77.98 57
78.04 62
78.1 46
78.16 50
78.22 43
78.28 62
78.34 48
78.4 48
78.46 54
78.52 54
78.58 44
78.64 36
78.7 45
78.76 50
78.82 45
78.88 46
78.94 48
79 54
79.06 65
79.12 57
79.18 47
79.24 43
79.3 37
79.36 54
79.42 39
79.48 38
79.54 46
79.6 59
79.66 45
79.72 52
79.78 44
79.84 43
79.9 41
79.96 47
80.02 43
80.08 54
80.14 42
80.2 46
80.26 55
80.32 39
80.38 58
80.44 67
80.5 45
80.56 44
80.62 51
80.68 55
80.74 44
80.8 40
80.86 49
80.92 46
80.98 43
81.04 44
81.1 44
81.16 39
81.22 50
81.28 37
81.34 51
81.4 55
81.46 54
81.52 47
81.58 56
81.64 39
81.7 59
81.76 38
81.82 46
81.88 45
81.94 32
82 42
82.06 53
82.12 46
82.18 32
82.24 41
82.3 55
82.36 48
82.42 41
82.48 42
82.54 51
82.6 55
82.66 41
82.72 40
82.78 37
82.84 38
82.9 49
82.96 47
83.02 41
83.08 44
83.14 47
83.2 49
83.26 45
83.32 40
83.38 38
83.44 46
83.5 34
83.56 49
83.62 51
83.68 43
83.74 45
83.8 46
83.86 35
83.92 49
83.98 35
84.04 41
84.1 38
84.16 47
84.22 38
84.28 42
84.34 41
84.4 33
84.46 42
84.52 42
84.58 53
84.64 38
84.7 34
84.76 38
84.82 50
84.88 39
84.94 39
85 40
85.06 33
85.12 41
85.18 37
85.24 36
85.3 46
85.36 45
85.42 28
85.48 42
85.54 31
85.6 32
85.66 48
85.72 47
85.78 45
85.84 50
85.9 37
85.96 43
86.02 35
86.08 40
86.14 38
86.2 37
86.26 40
86.32 37
86.38 39
86.44 49
86.5 32
86.56 41
86.62 32
86.68 31
86.74 31
86.8 34
86.86 30
86.92 30
86.98 47
87.04 39
87.1 39
87.16 35
87.22 34
87.28 37
87.34 36
87.4 40
87.46 36
87.52 33
87.58 48
87.64 39
87.7 26
87.76 48
87.82 37
87.88 37
87.94 33
88 34
88.06 33
88.12 38
88.18 23
88.24 25
88.3 40
88.36 30
88.42 46
88.48 41
88.54 46
88.6 38
88.66 31
88.72 34
88.78 32
88.84 34
88.9 23
88.96 40
89.02 25
89.08 32
89.14 38
89.2 30
89.26 34
89.32 39
89.38 23
89.44 48
89.5 32
89.56 25
89.62 39
89.68 38
89.74 33
89.8 34
89.86 32
89.92 30
89.98 33
90 32